date,time,build,subject,trialcode,blocknum,trialnum,latency,response,correct,stimulus1,blockcode,stimulusitem2,stimulusitem3,stimulusitem4,stimulusitem5120616,11:26:59,4.0.9.0,1,practice,1,1,26197,57,1,sample.bmp,orient1,blacksquare2.gif,pic76.bmp,Mask.bmp,0120616,11:26:59,4.0.9.0,1,whitedirect,4,1,8182,plus1,0,w08.bmp,Judgedirect,blacksquare2.gif,pic107.bmp,Mask.bmp,0120616,11:26:59,4.0.9.0,1,blackdirect,4,2,1992,plus1,0,b12.bmp,Judgedirect,blacksquare2.gif,pic114.bmp,Mask.bmp,0120616,11:26:59,4.0.9.0,1,whitedirect,4,3,2735,minus1,0,w02.bmp,Judgedirect,blacksquare2.gif,pic108.bmp,Mask.bmp,0120616,11:26:59,4.0.9.0,1,blackdirect,4,4,3926,plus1,0,b03.bmp,Judgedirect,blacksquare2.gif,pic116.bmp,Mask.bmp,0120616,11:26:59,4.0.9.0,1,whitedirect,4,5,5306,plus1,0,b12.jpg,Judgedirect,blacksquare2.gif,pic110.bmp,Mask.bmp,0120616,11:26:59,4.0.9.0,1,blackdirect,4,6,3374,plus1,0,b06.bmp,Judgedirect,blacksquare2.gif,pic115.bmp,Mask.bmp,0120616,11:26:59,4.0.9.0,1,whitedirect,4,7,1617,plus1,0,w04.bmp,Judgedirect,blacksquare2.gif,pic117.bmp,Mask.bmp,0120616,11:26:59,4.0.9.0,1,blackdirect,4,8,2539,minus1,0,b09.bmp,Judgedirect,blacksquare2.gif,pic78.bmp,Mask.bmp,0120616,11:26:59,4.0.9.0,1,whitedirect,4,9,2569,plus1,0,w07.bmp,Judgedirect,blacksquare2.gif,pic81.bmp,Mask.bmp,0120616,11:26:59,4.0.9.0,1,blackdirect,4,10,6856,minus1,0,b11.bmp,Judgedirect,blacksquare2.gif,pic113.bmp,Mask.bmp,0120616,11:26:59,4.0.9.0,1,whitedirect,4,11,1397,plus1,0,b10.jpg,Judgedirect,blacksquare2.gif,pic112.bmp,Mask.bmp,0120616,11:26:59,4.0.9.0,1,blackdirect,4,12,2669,plus1,0,b05.bmp,Judgedirect,blacksquare2.gif,pic101.bmp,Mask.bmp,0120616,11:26:59,4.0.9.0,1,whitedirect,4,13,1052,plus1,0,w09.bmp,Judgedirect,blacksquare2.gif,pic109.bmp,Mask.bmp,0120616,11:26:59,4.0.9.0,1,blackdirect,4,14,1394,plus1,0,b10.bmp,Judgedirect,blacksquare2.gif,pic102.bmp,Mask.bmp,0120616,11:26:59,4.0.9.0,1,whitedirect,4,15,10541,plus1,0,w06.bmp,Judgedirect,blacksquare2.gif,pic80.bmp,Mask.bmp,0120616,11:26:59,4.0.9.0,1,blackdirect,4,16,872,plus1,0,b08.bmp,Judgedirect,blacksquare2.gif,pic100.bmp,Mask.bmp,0120616,11:26:59,4.0.9.0,1,whitedirect,4,17,2758,plus2,0,w01.bmp,Judgedirect,blacksquare2.gif,pic104.bmp,Mask.bmp,0120616,11:26:59,4.0.9.0,1,blackdirect,4,18,1657,plus1,0,b04.bmp,Judgedirect,blacksquare2.gif,pic105.bmp,Mask.bmp,0120616,11:26:59,4.0.9.0,1,whitedirect,4,19,2959,minus1,0,w03.bmp,Judgedirect,blacksquare2.gif,pic118.bmp,Mask.bmp,0120616,11:26:59,4.0.9.0,1,blackdirect,4,20,4392,plus1,0,b02.bmp,Judgedirect,blacksquare2.gif,pic111.bmp,Mask.bmp,0120616,11:26:59,4.0.9.0,1,whitedirect,4,21,556,plus1,0,b11.jpg,Judgedirect,blacksquare2.gif,pic82.bmp,Mask.bmp,0120616,11:26:59,4.0.9.0,1,blackdirect,4,22,793,plus1,0,b01.bmp,Judgedirect,blacksquare2.gif,pic103.bmp,Mask.bmp,0120616,11:26:59,4.0.9.0,1,whitedirect,4,23,3492,plus2,0,w05.bmp,Judgedirect,blacksquare2.gif,pic79.bmp,Mask.bmp,0120616,11:26:59,4.0.9.0,1,blackdirect,4,24,3002,plus1,0,b07.bmp,Judgedirect,blacksquare2.gif,pic106.bmp,Mask.bmp,0120616,11:26:59,4.0.9.0,1,blackindirect,6,1,5375,plus2,0,b01.bmp,Judgeindirect,blacksquare2.gif,pic53.bmp,Mask.bmp,0120616,11:26:59,4.0.9.0,1,blackindirect,6,2,4771,plus1,0,b12.bmp,Judgeindirect,blacksquare2.gif,pic1.bmp,Mask.bmp,0120616,11:26:59,4.0.9.0,1,neutral,6,3,10891,plus1,0,GREY.bmp,Judgeindirect,blacksquare2.gif,pic57.bmp,Mask.bmp,0120616,11:26:59,4.0.9.0,1,neutral,6,4,2519,plus2,0,GREY.bmp,Judgeindirect,blacksquare2.gif,pic8.bmp,Mask.bmp,0120616,11:26:59,4.0.9.0,1,whiteindirect,6,5,5002,plus1,0,w06.bmp,Judgeindirect,blacksquare2.gif,pic40.bmp,Mask.bmp,0120616,11:26:59,4.0.9.0,1,whiteindirect,6,6,3959,plus2,0,w08.bmp,Judgeindirect,blacksquare2.gif,pic33.bmp,Mask.bmp,0120616,11:26:59,4.0.9.0,1,blackindirect,6,7,4564,plus2,0,b11.bmp,Judgeindirect,blacksquare2.gif,pic14.bmp,Mask.bmp,0120616,11:26:59,4.0.9.0,1,neutral,6,8,945,plus2,0,GREY.bmp,Judgeindirect,blacksquare2.gif,pic46.bmp,Mask.bmp,0120616,11:26:59,4.0.9.0,1,whiteindirect,6,9,1485,minus1,0,w07.bmp,Judgeindirect,blacksquare2.gif,pic37.bmp,Mask.bmp,0120616,11:26:59,4.0.9.0,1,whiteindirect,6,10,2898,plus1,0,w02.bmp,Judgeindirect,blacksquare2.gif,pic74.bmp,Mask.bmp,0120616,11:26:59,4.0.9.0,1,blackindirect,6,11,5476,plus1,0,b05.bmp,Judgeindirect,blacksquare2.gif,pic51.bmp,Mask.bmp,0120616,11:26:59,4.0.9.0,1,whiteindirect,6,12,2641,minus2,0,w04.bmp,Judgeindirect,blacksquare2.gif,pic38.bmp,Mask.bmp,0120616,11:26:59,4.0.9.0,1,blackindirect,6,13,1300,minus2,0,b04.bmp,Judgeindirect,blacksquare2.gif,pic64.bmp,Mask.bmp,0120616,11:26:59,4.0.9.0,1,whiteindirect,6,14,2947,minus1,0,w05.bmp,Judgeindirect,blacksquare2.gif,pic26.bmp,Mask.bmp,0120616,11:26:59,4.0.9.0,1,neutral,6,15,1458,minus1,0,GREY.bmp,Judgeindirect,blacksquare2.gif,pic70.bmp,Mask.bmp,0120616,11:26:59,4.0.9.0,1,whiteindirect,6,16,2914,plus1,0,b12.jpg,Judgeindirect,blacksquare2.gif,pic63.bmp,Mask.bmp,0120616,11:26:59,4.0.9.0,1,whiteindirect,6,17,2322,plus2,0,w01.bmp,Judgeindirect,blacksquare2.gif,pic62.bmp,Mask.bmp,0120616,11:26:59,4.0.9.0,1,neutral,6,18,1148,plus2,0,GREY.bmp,Judgeindirect,blacksquare2.gif,pic24.bmp,Mask.bmp,0120616,11:26:59,4.0.9.0,1,neutral,6,19,2613,plus2,0,GREY.bmp,Judgeindirect,blacksquare2.gif,pic49.bmp,Mask.bmp,0120616,11:26:59,4.0.9.0,1,blackindirect,6,20,2361,plus1,0,b06.bmp,Judgeindirect,blacksquare2.gif,pic68.bmp,Mask.bmp,0120616,11:26:59,4.0.9.0,1,blackindirect,6,21,1957,minus1,0,b09.bmp,Judgeindirect,blacksquare2.gif,pic75.bmp,Mask.bmp,0120616,11:26:59,4.0.9.0,1,blackindirect,6,22,5029,plus1,0,b03.bmp,Judgeindirect,blacksquare2.gif,pic25.bmp,Mask.bmp,0120616,11:26:59,4.0.9.0,1,neutral,6,23,1739,minus2,0,GREY.bmp,Judgeindirect,blacksquare2.gif,pic60.bmp,Mask.bmp,0120616,11:26:59,4.0.9.0,1,blackindirect,6,24,1650,plus2,0,b10.bmp,Judgeindirect,blacksquare2.gif,pic6.bmp,Mask.bmp,0120616,11:26:59,4.0.9.0,1,blackindirect,6,25,1278,plus2,0,b02.bmp,Judgeindirect,blacksquare2.gif,pic36.bmp,Mask.bmp,0120616,11:26:59,4.0.9.0,1,neutral,6,26,2888,minus1,0,GREY.bmp,Judgeindirect,blacksquare2.gif,pic31.bmp,Mask.bmp,0120616,11:26:59,4.0.9.0,1,neutral,6,27,4964,plus1,0,GREY.bmp,Judgeindirect,blacksquare2.gif,pic4.bmp,Mask.bmp,0120616,11:26:59,4.0.9.0,1,blackindirect,6,28,1680,plus2,0,b07.bmp,Judgeindirect,blacksquare2.gif,pic29.bmp,Mask.bmp,0120616,11:26:59,4.0.9.0,1,whiteindirect,6,29,783,plus2,0,b11.jpg,Judgeindirect,blacksquare2.gif,pic19.bmp,Mask.bmp,0120616,11:26:59,4.0.9.0,1,neutral,6,30,762,plus2,0,GREY.bmp,Judgeindirect,blacksquare2.gif,pic66.bmp,Mask.bmp,0120616,11:26:59,4.0.9.0,1,blackindirect,6,31,2269,minus1,0,b08.bmp,Judgeindirect,blacksquare2.gif,pic56.bmp,Mask.bmp,0120616,11:26:59,4.0.9.0,1,whiteindirect,6,32,1302,plus2,0,w03.bmp,Judgeindirect,blacksquare2.gif,pic61.bmp,Mask.bmp,0120616,11:26:59,4.0.9.0,1,whiteindirect,6,33,748,plus2,0,w09.bmp,Judgeindirect,blacksquare2.gif,pic58.bmp,Mask.bmp,0120616,11:26:59,4.0.9.0,1,blackindirect,6,34,1189,plus1,0,b10.bmp,Judgeindirect,blacksquare2.gif,pic42.bmp,Mask.bmp,0120616,11:26:59,4.0.9.0,1,neutral,6,35,1085,minus1,0,GREY.bmp,Judgeindirect,blacksquare2.gif,pic18.bmp,Mask.bmp,0120616,11:26:59,4.0.9.0,1,blackindirect,6,36,1116,minus1,0,b11.bmp,Judgeindirect,blacksquare2.gif,pic72.bmp,Mask.bmp,0120616,11:26:59,4.0.9.0,1,neutral,6,37,1621,plus1,0,GREY.bmp,Judgeindirect,blacksquare2.gif,pic3.bmp,Mask.bmp,0120616,11:26:59,4.0.9.0,1,neutral,6,38,1575,minus2,0,GREY.bmp,Judgeindirect,blacksquare2.gif,pic7.bmp,Mask.bmp,0120616,11:26:59,4.0.9.0,1,whiteindirect,6,39,691,minus2,0,b10.jpg,Judgeindirect,blacksquare2.gif,pic55.bmp,Mask.bmp,0120616,11:26:59,4.0.9.0,1,neutral,6,40,784,minus2,0,GREY.bmp,Judgeindirect,blacksquare2.gif,pic34.bmp,Mask.bmp,0120616,11:26:59,4.0.9.0,1,blackindirect,6,41,2044,plus1,0,b01.bmp,Judgeindirect,blacksquare2.gif,pic12.bmp,Mask.bmp,0120616,11:26:59,4.0.9.0,1,blackindirect,6,42,2522,plus1,0,b04.bmp,Judgeindirect,blacksquare2.gif,pic23.bmp,Mask.bmp,0120616,11:26:59,4.0.9.0,1,blackindirect,6,43,1692,minus1,0,b08.bmp,Judgeindirect,blacksquare2.gif,pic13.bmp,Mask.bmp,0120616,11:26:59,4.0.9.0,1,blackindirect,6,44,1985,plus2,0,b06.bmp,Judgeindirect,blacksquare2.gif,pic39.bmp,Mask.bmp,0120616,11:26:59,4.0.9.0,1,neutral,6,45,938,plus2,0,GREY.bmp,Judgeindirect,blacksquare2.gif,pic65.bmp,Mask.bmp,0120616,11:26:59,4.0.9.0,1,whiteindirect,6,46,2117,plus1,0,b11.jpg,Judgeindirect,blacksquare2.gif,pic71.bmp,Mask.bmp,0120616,11:26:59,4.0.9.0,1,blackindirect,6,47,3825,minus1,0,b07.bmp,Judgeindirect,blacksquare2.gif,pic44.bmp,Mask.bmp,0120616,11:26:59,4.0.9.0,1,blackindirect,6,48,908,minus1,0,b12.bmp,Judgeindirect,blacksquare2.gif,pic5.bmp,Mask.bmp,0120616,11:26:59,4.0.9.0,1,neutral,6,49,1284,minus1,0,GREY.bmp,Judgeindirect,blacksquare2.gif,pic48.bmp,Mask.bmp,0120616,11:26:59,4.0.9.0,1,whiteindirect,6,50,1101,plus2,0,w08.bmp,Judgeindirect,blacksquare2.gif,pic30.bmp,Mask.bmp,0120616,11:26:59,4.0.9.0,1,whiteindirect,6,51,1916,plus1,0,w06.bmp,Judgeindirect,blacksquare2.gif,pic11.bmp,Mask.bmp,0120616,11:26:59,4.0.9.0,1,neutral,6,52,2652,plus1,0,GREY.bmp,Judgeindirect,blacksquare2.gif,pic45.bmp,Mask.bmp,0120616,11:26:59,4.0.9.0,1,neutral,6,53,1629,plus2,0,GREY.bmp,Judgeindirect,blacksquare2.gif,pic59.bmp,Mask.bmp,0120616,11:26:59,4.0.9.0,1,blackindirect,6,54,2082,plus1,0,b03.bmp,Judgeindirect,blacksquare2.gif,pic47.bmp,Mask.bmp,0120616,11:26:59,4.0.9.0,1,whiteindirect,6,55,4239,minus1,0,w07.bmp,Judgeindirect,blacksquare2.gif,pic67.bmp,Mask.bmp,0120616,11:26:59,4.0.9.0,1,whiteindirect,6,56,768,minus1,0,w04.bmp,Judgeindirect,blacksquare2.gif,pic15.bmp,Mask.bmp,0120616,11:26:59,4.0.9.0,1,neutral,6,57,2151,minus2,0,GREY.bmp,Judgeindirect,blacksquare2.gif,pic28.bmp,Mask.bmp,0120616,11:26:59,4.0.9.0,1,whiteindirect,6,58,2351,plus2,0,w09.bmp,Judgeindirect,blacksquare2.gif,pic17.bmp,Mask.bmp,0120616,11:26:59,4.0.9.0,1,blackindirect,6,59,3351,minus1,0,b05.bmp,Judgeindirect,blacksquare2.gif,pic16.bmp,Mask.bmp,0120616,11:26:59,4.0.9.0,1,whiteindirect,6,60,2741,plus1,0,w05.bmp,Judgeindirect,blacksquare2.gif,pic21.bmp,Mask.bmp,0120616,11:26:59,4.0.9.0,1,blackindirect,6,61,1979,minus2,0,b09.bmp,Judgeindirect,blacksquare2.gif,pic22.bmp,Mask.bmp,0120616,11:26:59,4.0.9.0,1,whiteindirect,6,62,2290,minus1,0,w02.bmp,Judgeindirect,blacksquare2.gif,pic32.bmp,Mask.bmp,0120616,11:26:59,4.0.9.0,1,neutral,6,63,2340,plus1,0,GREY.bmp,Judgeindirect,blacksquare2.gif,pic20.bmp,Mask.bmp,0120616,11:26:59,4.0.9.0,1,neutral,6,64,3400,minus1,0,GREY.bmp,Judgeindirect,blacksquare2.gif,pic52.bmp,Mask.bmp,0120616,11:26:59,4.0.9.0,1,whiteindirect,6,65,1503,plus2,0,b10.jpg,Judgeindirect,blacksquare2.gif,pic54.bmp,Mask.bmp,0120616,11:26:59,4.0.9.0,1,neutral,6,66,1793,plus1,0,GREY.bmp,Judgeindirect,blacksquare2.gif,pic10.bmp,Mask.bmp,0120616,11:26:59,4.0.9.0,1,blackindirect,6,67,2050,plus2,0,b02.bmp,Judgeindirect,blacksquare2.gif,pic27.bmp,Mask.bmp,0120616,11:26:59,4.0.9.0,1,whiteindirect,6,68,1740,plus2,0,b12.jpg,Judgeindirect,blacksquare2.gif,pic69.bmp,Mask.bmp,0120616,11:26:59,4.0.9.0,1,whiteindirect,6,69,1525,plus1,0,w01.bmp,Judgeindirect,blacksquare2.gif,pic2.bmp,Mask.bmp,0120616,11:26:59,4.0.9.0,1,whiteindirect,6,70,1775,minus1,0,w03.bmp,Judgeindirect,blacksquare2.gif,pic41.bmp,Mask.bmp,0120616,11:26:59,4.0.9.0,1,neutral,6,71,2129,minus1,0,GREY.bmp,Judgeindirect,blacksquare2.gif,pic73.bmp,Mask.bmp,0120616,11:26:59,4.0.9.0,1,neutral,6,72,1746,minus1,0,GREY.bmp,Judgeindirect,blacksquare2.gif,pic43.bmp,Mask.bmp,0120616,11:26:59,4.0.9.0,1,sesso,7,1,25785,2,1,0,demo,0,0,0,0120616,11:26:59,4.0.9.0,1,anni,7,1,25785,20,1,0,demo,0,0,0,0120616,11:26:59,4.0.9.0,1,etnia,7,1,25785,Caucasico/Europeo,1,0,demo,0,0,0,0120616,11:39:55,4.0.9.0,2,practice,1,1,25854,57,1,sample.bmp,orient1,blacksquare2.gif,pic76.bmp,Mask.bmp,0120616,11:39:55,4.0.9.0,2,blackindirect,4,1,17256,plus1,0,b11.bmp,Judgeindirect,blacksquare2.gif,pic19.bmp,Mask.bmp,0120616,11:39:55,4.0.9.0,2,neutral,4,2,6745,plus1,0,GREY.bmp,Judgeindirect,blacksquare2.gif,pic10.bmp,Mask.bmp,0120616,11:39:55,4.0.9.0,2,blackindirect,4,3,6408,plus1,0,b09.bmp,Judgeindirect,blacksquare2.gif,pic63.bmp,Mask.bmp,0120616,11:39:55,4.0.9.0,2,blackindirect,4,4,7872,plus2,0,b08.bmp,Judgeindirect,blacksquare2.gif,pic58.bmp,Mask.bmp,0120616,11:39:55,4.0.9.0,2,whiteindirect,4,5,6010,minus1,0,b10.jpg,Judgeindirect,blacksquare2.gif,pic42.bmp,Mask.bmp,0120616,11:39:55,4.0.9.0,2,neutral,4,6,4110,plus1,0,GREY.bmp,Judgeindirect,blacksquare2.gif,pic14.bmp,Mask.bmp,0120616,11:39:55,4.0.9.0,2,neutral,4,7,9912,plus2,0,GREY.bmp,Judgeindirect,blacksquare2.gif,pic12.bmp,Mask.bmp,0120616,11:39:55,4.0.9.0,2,whiteindirect,4,8,4261,minus2,0,w03.bmp,Judgeindirect,blacksquare2.gif,pic64.bmp,Mask.bmp,0120616,11:39:55,4.0.9.0,2,whiteindirect,4,9,5027,plus1,0,w02.bmp,Judgeindirect,blacksquare2.gif,pic66.bmp,Mask.bmp,0120616,11:39:55,4.0.9.0,2,blackindirect,4,10,2988,minus1,0,b03.bmp,Judgeindirect,blacksquare2.gif,pic70.bmp,Mask.bmp,0120616,11:39:55,4.0.9.0,2,blackindirect,4,11,6785,plus1,0,b02.bmp,Judgeindirect,blacksquare2.gif,pic57.bmp,Mask.bmp,0120616,11:39:55,4.0.9.0,2,neutral,4,12,7315,minus1,0,GREY.bmp,Judgeindirect,blacksquare2.gif,pic18.bmp,Mask.bmp,0120616,11:39:55,4.0.9.0,2,neutral,4,13,4357,minus1,0,GREY.bmp,Judgeindirect,blacksquare2.gif,pic75.bmp,Mask.bmp,0120616,11:39:55,4.0.9.0,2,whiteindirect,4,14,2641,plus2,0,w01.bmp,Judgeindirect,blacksquare2.gif,pic59.bmp,Mask.bmp,0120616,11:39:55,4.0.9.0,2,neutral,4,15,847,plus2,0,GREY.bmp,Judgeindirect,blacksquare2.gif,pic62.bmp,Mask.bmp,0120616,11:39:55,4.0.9.0,2,whiteindirect,4,16,1119,plus2,0,w04.bmp,Judgeindirect,blacksquare2.gif,pic39.bmp,Mask.bmp,0120616,11:39:55,4.0.9.0,2,blackindirect,4,17,2955,plus1,0,b05.bmp,Judgeindirect,blacksquare2.gif,pic11.bmp,Mask.bmp,0120616,11:39:55,4.0.9.0,2,whiteindirect,4,18,2557,plus2,0,w06.bmp,Judgeindirect,blacksquare2.gif,pic60.bmp,Mask.bmp,0120616,11:39:55,4.0.9.0,2,whiteindirect,4,19,3326,minus1,0,w08.bmp,Judgeindirect,blacksquare2.gif,pic31.bmp,Mask.bmp,0120616,11:39:55,4.0.9.0,2,blackindirect,4,20,1071,minus1,0,b01.bmp,Judgeindirect,blacksquare2.gif,pic71.bmp,Mask.bmp,0120616,11:39:55,4.0.9.0,2,blackindirect,4,21,1522,plus1,0,b07.bmp,Judgeindirect,blacksquare2.gif,pic61.bmp,Mask.bmp,0120616,11:39:55,4.0.9.0,2,neutral,4,22,2864,plus2,0,GREY.bmp,Judgeindirect,blacksquare2.gif,pic33.bmp,Mask.bmp,0120616,11:39:55,4.0.9.0,2,blackindirect,4,23,1781,minus2,0,b10.bmp,Judgeindirect,blacksquare2.gif,pic45.bmp,Mask.bmp,0120616,11:39:55,4.0.9.0,2,blackindirect,4,24,3151,plus1,0,b04.bmp,Judgeindirect,blacksquare2.gif,pic25.bmp,Mask.bmp,0120616,11:39:55,4.0.9.0,2,blackindirect,4,25,3226,minus1,0,b12.bmp,Judgeindirect,blacksquare2.gif,pic32.bmp,Mask.bmp,0120616,11:39:55,4.0.9.0,2,neutral,4,26,5096,plus2,0,GREY.bmp,Judgeindirect,blacksquare2.gif,pic47.bmp,Mask.bmp,0120616,11:39:55,4.0.9.0,2,neutral,4,27,616,plus2,0,GREY.bmp,Judgeindirect,blacksquare2.gif,pic29.bmp,Mask.bmp,0120616,11:39:55,4.0.9.0,2,neutral,4,28,1739,minus2,0,GREY.bmp,Judgeindirect,blacksquare2.gif,pic16.bmp,Mask.bmp,0120616,11:39:55,4.0.9.0,2,neutral,4,29,4039,minus1,0,GREY.bmp,Judgeindirect,blacksquare2.gif,pic69.bmp,Mask.bmp,0120616,11:39:55,4.0.9.0,2,whiteindirect,4,30,2815,minus2,0,w05.bmp,Judgeindirect,blacksquare2.gif,pic7.bmp,Mask.bmp,0120616,11:39:55,4.0.9.0,2,neutral,4,31,1879,minus2,0,GREY.bmp,Judgeindirect,blacksquare2.gif,pic8.bmp,Mask.bmp,0120616,11:39:55,4.0.9.0,2,neutral,4,32,1611,minus1,0,GREY.bmp,Judgeindirect,blacksquare2.gif,pic5.bmp,Mask.bmp,0120616,11:39:55,4.0.9.0,2,blackindirect,4,33,1922,plus1,0,b06.bmp,Judgeindirect,blacksquare2.gif,pic1.bmp,Mask.bmp,0120616,11:39:55,4.0.9.0,2,blackindirect,4,34,1473,minus1,0,b12.bmp,Judgeindirect,blacksquare2.gif,pic15.bmp,Mask.bmp,0120616,11:39:55,4.0.9.0,2,blackindirect,4,35,2884,minus2,0,b05.bmp,Judgeindirect,blacksquare2.gif,pic20.bmp,Mask.bmp,0120616,11:39:55,4.0.9.0,2,neutral,4,36,1866,plus1,0,GREY.bmp,Judgeindirect,blacksquare2.gif,pic51.bmp,Mask.bmp,0120616,11:39:55,4.0.9.0,2,blackindirect,4,37,1455,plus2,0,b07.bmp,Judgeindirect,blacksquare2.gif,pic17.bmp,Mask.bmp,0120616,11:39:55,4.0.9.0,2,neutral,4,38,1191,plus2,0,GREY.bmp,Judgeindirect,blacksquare2.gif,pic48.bmp,Mask.bmp,0120616,11:39:55,4.0.9.0,2,whiteindirect,4,39,1226,minus1,0,b12.jpg,Judgeindirect,blacksquare2.gif,pic44.bmp,Mask.bmp,0120616,11:39:55,4.0.9.0,2,neutral,4,40,1345,plus1,0,GREY.bmp,Judgeindirect,blacksquare2.gif,pic41.bmp,Mask.bmp,0120616,11:39:55,4.0.9.0,2,whiteindirect,4,41,1063,plus2,0,w09.bmp,Judgeindirect,blacksquare2.gif,pic23.bmp,Mask.bmp,0120616,11:39:55,4.0.9.0,2,blackindirect,4,42,1856,plus1,0,b08.bmp,Judgeindirect,blacksquare2.gif,pic6.bmp,Mask.bmp,0120616,11:39:55,4.0.9.0,2,blackindirect,4,43,2708,minus2,0,b04.bmp,Judgeindirect,blacksquare2.gif,pic28.bmp,Mask.bmp,0120616,11:39:55,4.0.9.0,2,whiteindirect,4,44,1145,minus1,0,b11.jpg,Judgeindirect,blacksquare2.gif,pic3.bmp,Mask.bmp,0120616,11:39:55,4.0.9.0,2,whiteindirect,4,45,1328,plus1,0,w07.bmp,Judgeindirect,blacksquare2.gif,pic30.bmp,Mask.bmp,0120616,11:39:55,4.0.9.0,2,blackindirect,4,46,1932,minus1,0,b11.bmp,Judgeindirect,blacksquare2.gif,pic13.bmp,Mask.bmp,0120616,11:39:55,4.0.9.0,2,whiteindirect,4,47,1095,plus2,0,w08.bmp,Judgeindirect,blacksquare2.gif,pic54.bmp,Mask.bmp,0120616,11:39:55,4.0.9.0,2,neutral,4,48,1551,plus2,0,GREY.bmp,Judgeindirect,blacksquare2.gif,pic68.bmp,Mask.bmp,0120616,11:39:55,4.0.9.0,2,whiteindirect,4,49,1929,plus1,0,w06.bmp,Judgeindirect,blacksquare2.gif,pic4.bmp,Mask.bmp,0120616,11:39:55,4.0.9.0,2,blackindirect,4,50,1574,minus1,0,b10.bmp,Judgeindirect,blacksquare2.gif,pic65.bmp,Mask.bmp,0120616,11:39:55,4.0.9.0,2,blackindirect,4,51,2549,plus1,0,b02.bmp,Judgeindirect,blacksquare2.gif,pic67.bmp,Mask.bmp,0120616,11:39:55,4.0.9.0,2,neutral,4,52,1380,plus2,0,GREY.bmp,Judgeindirect,blacksquare2.gif,pic37.bmp,Mask.bmp,0120616,11:39:55,4.0.9.0,2,blackindirect,4,53,1775,minus1,0,b09.bmp,Judgeindirect,blacksquare2.gif,pic73.bmp,Mask.bmp,0120616,11:39:55,4.0.9.0,2,whiteindirect,4,54,1645,plus1,0,w02.bmp,Judgeindirect,blacksquare2.gif,pic22.bmp,Mask.bmp,0120616,11:39:55,4.0.9.0,2,whiteindirect,4,55,2210,minus1,0,w03.bmp,Judgeindirect,blacksquare2.gif,pic49.bmp,Mask.bmp,0120616,11:39:55,4.0.9.0,2,blackindirect,4,56,1733,minus2,0,b03.bmp,Judgeindirect,blacksquare2.gif,pic56.bmp,Mask.bmp,0120616,11:39:55,4.0.9.0,2,neutral,4,57,1907,plus1,0,GREY.bmp,Judgeindirect,blacksquare2.gif,pic34.bmp,Mask.bmp,0120616,11:39:55,4.0.9.0,2,whiteindirect,4,58,1268,plus2,0,b10.jpg,Judgeindirect,blacksquare2.gif,pic27.bmp,Mask.bmp,0120616,11:39:55,4.0.9.0,2,whiteindirect,4,59,1410,plus1,0,w04.bmp,Judgeindirect,blacksquare2.gif,pic38.bmp,Mask.bmp,0120616,11:39:55,4.0.9.0,2,neutral,4,60,1356,plus2,0,GREY.bmp,Judgeindirect,blacksquare2.gif,pic72.bmp,Mask.bmp,0120616,11:39:55,4.0.9.0,2,blackindirect,4,61,3043,minus1,0,b06.bmp,Judgeindirect,blacksquare2.gif,pic2.bmp,Mask.bmp,0120616,11:39:55,4.0.9.0,2,neutral,4,62,1365,plus1,0,GREY.bmp,Judgeindirect,blacksquare2.gif,pic43.bmp,Mask.bmp,0120616,11:39:55,4.0.9.0,2,whiteindirect,4,63,3758,minus2,0,w01.bmp,Judgeindirect,blacksquare2.gif,pic74.bmp,Mask.bmp,0120616,11:39:55,4.0.9.0,2,whiteindirect,4,64,1516,minus1,0,w07.bmp,Judgeindirect,blacksquare2.gif,pic26.bmp,Mask.bmp,0120616,11:39:55,4.0.9.0,2,whiteindirect,4,65,1075,plus2,0,w09.bmp,Judgeindirect,blacksquare2.gif,pic36.bmp,Mask.bmp,0120616,11:39:55,4.0.9.0,2,whiteindirect,4,66,1979,minus1,0,b12.jpg,Judgeindirect,blacksquare2.gif,pic52.bmp,Mask.bmp,0120616,11:39:55,4.0.9.0,2,neutral,4,67,2867,plus1,0,GREY.bmp,Judgeindirect,blacksquare2.gif,pic50.bmp,Mask.bmp,0120616,11:39:55,4.0.9.0,2,whiteindirect,4,68,1332,plus2,0,b11.jpg,Judgeindirect,blacksquare2.gif,pic46.bmp,Mask.bmp,0120616,11:39:55,4.0.9.0,2,neutral,4,69,1657,minus1,0,GREY.bmp,Judgeindirect,blacksquare2.gif,pic55.bmp,Mask.bmp,0120616,11:39:55,4.0.9.0,2,neutral,4,70,2303,plus2,0,GREY.bmp,Judgeindirect,blacksquare2.gif,pic24.bmp,Mask.bmp,0120616,11:39:55,4.0.9.0,2,blackindirect,4,71,1621,minus1,0,b01.bmp,Judgeindirect,blacksquare2.gif,pic53.bmp,Mask.bmp,0120616,11:39:55,4.0.9.0,2,whiteindirect,4,72,1026,plus1,0,w05.bmp,Judgeindirect,blacksquare2.gif,pic21.bmp,Mask.bmp,0120616,11:39:55,4.0.9.0,2,whitedirect,6,1,3619,plus1,0,w02.bmp,Judgedirect,blacksquare2.gif,pic116.bmp,Mask.bmp,0120616,11:39:55,4.0.9.0,2,blackdirect,6,2,1103,plus1,0,b09.bmp,Judgedirect,blacksquare2.gif,pic81.bmp,Mask.bmp,0120616,11:39:55,4.0.9.0,2,whitedirect,6,3,1652,plus2,0,w08.bmp,Judgedirect,blacksquare2.gif,pic115.bmp,Mask.bmp,0120616,11:39:55,4.0.9.0,2,blackdirect,6,4,1751,plus1,0,b12.bmp,Judgedirect,blacksquare2.gif,pic107.bmp,Mask.bmp,0120616,11:39:55,4.0.9.0,2,whitedirect,6,5,2023,minus1,0,w07.bmp,Judgedirect,blacksquare2.gif,pic79.bmp,Mask.bmp,0120616,11:39:55,4.0.9.0,2,blackdirect,6,6,996,plus1,0,b07.bmp,Judgedirect,blacksquare2.gif,pic102.bmp,Mask.bmp,0120616,11:39:55,4.0.9.0,2,whitedirect,6,7,2481,minus1,0,w04.bmp,Judgedirect,blacksquare2.gif,pic113.bmp,Mask.bmp,0120616,11:39:55,4.0.9.0,2,blackdirect,6,8,910,minus1,0,b08.bmp,Judgedirect,blacksquare2.gif,pic114.bmp,Mask.bmp,0120616,11:39:55,4.0.9.0,2,whitedirect,6,9,3427,plus2,0,w05.bmp,Judgedirect,blacksquare2.gif,pic101.bmp,Mask.bmp,0120616,11:39:55,4.0.9.0,2,blackdirect,6,10,894,plus1,0,b10.bmp,Judgedirect,blacksquare2.gif,pic118.bmp,Mask.bmp,0120616,11:39:55,4.0.9.0,2,whitedirect,6,11,1003,minus1,0,b11.jpg,Judgedirect,blacksquare2.gif,pic82.bmp,Mask.bmp,0120616,11:39:55,4.0.9.0,2,blackdirect,6,12,4957,plus1,0,b05.bmp,Judgedirect,blacksquare2.gif,pic106.bmp,Mask.bmp,0120616,11:39:55,4.0.9.0,2,whitedirect,6,13,501,plus1,0,b12.jpg,Judgedirect,blacksquare2.gif,pic108.bmp,Mask.bmp,0120616,11:39:55,4.0.9.0,2,blackdirect,6,14,854,minus1,0,b03.bmp,Judgedirect,blacksquare2.gif,pic103.bmp,Mask.bmp,0120616,11:39:55,4.0.9.0,2,whitedirect,6,15,1893,minus2,0,w03.bmp,Judgedirect,blacksquare2.gif,pic109.bmp,Mask.bmp,0120616,11:39:55,4.0.9.0,2,blackdirect,6,16,2362,minus2,0,b11.bmp,Judgedirect,blacksquare2.gif,pic117.bmp,Mask.bmp,0120616,11:39:55,4.0.9.0,2,whitedirect,6,17,973,plus1,0,w09.bmp,Judgedirect,blacksquare2.gif,pic105.bmp,Mask.bmp,0120616,11:39:55,4.0.9.0,2,blackdirect,6,18,2939,minus2,0,b01.bmp,Judgedirect,blacksquare2.gif,pic104.bmp,Mask.bmp,0120616,11:39:55,4.0.9.0,2,whitedirect,6,19,899,minus1,0,w06.bmp,Judgedirect,blacksquare2.gif,pic80.bmp,Mask.bmp,0120616,11:39:55,4.0.9.0,2,blackdirect,6,20,821,minus1,0,b04.bmp,Judgedirect,blacksquare2.gif,pic100.bmp,Mask.bmp,0120616,11:39:55,4.0.9.0,2,whitedirect,6,21,1838,plus1,0,b10.jpg,Judgedirect,blacksquare2.gif,pic78.bmp,Mask.bmp,0120616,11:39:55,4.0.9.0,2,blackdirect,6,22,1453,plus2,0,b02.bmp,Judgedirect,blacksquare2.gif,pic112.bmp,Mask.bmp,0120616,11:39:55,4.0.9.0,2,whitedirect,6,23,1377,minus1,0,w01.bmp,Judgedirect,blacksquare2.gif,pic110.bmp,Mask.bmp,0120616,11:39:55,4.0.9.0,2,blackdirect,6,24,1256,plus1,0,b06.bmp,Judgedirect,blacksquare2.gif,pic111.bmp,Mask.bmp,0120616,11:39:55,4.0.9.0,2,sesso,7,1,14800,2,1,0,demo,0,0,0,0120616,11:39:55,4.0.9.0,2,anni,7,1,14800,20,1,0,demo,0,0,0,0120616,11:39:55,4.0.9.0,2,etnia,7,1,14800,Caucasico/Europeo,1,0,demo,0,0,0,0120716,12:15:05,4.0.9.0,3,practice,1,1,23095,57,1,sample.bmp,orient1,blacksquare2.gif,pic76.bmp,Mask.bmp,0120716,12:15:05,4.0.9.0,3,blackindirect,4,1,15666,plus2,0,b04.bmp,Judgeindirect,blacksquare2.gif,pic54.bmp,Mask.bmp,0120716,12:15:05,4.0.9.0,3,neutral,4,2,6647,plus2,0,GREY.bmp,Judgeindirect,blacksquare2.gif,pic57.bmp,Mask.bmp,0120716,12:15:05,4.0.9.0,3,blackindirect,4,3,3902,plus2,0,b05.bmp,Judgeindirect,blacksquare2.gif,pic44.bmp,Mask.bmp,0120716,12:15:05,4.0.9.0,3,blackindirect,4,4,3012,plus2,0,b03.bmp,Judgeindirect,blacksquare2.gif,pic28.bmp,Mask.bmp,0120716,12:15:05,4.0.9.0,3,neutral,4,5,6907,plus2,0,GREY.bmp,Judgeindirect,blacksquare2.gif,pic7.bmp,Mask.bmp,0120716,12:15:05,4.0.9.0,3,blackindirect,4,6,1489,plus2,0,b02.bmp,Judgeindirect,blacksquare2.gif,pic16.bmp,Mask.bmp,0120716,12:15:05,4.0.9.0,3,whiteindirect,4,7,2030,plus2,0,w02.bmp,Judgeindirect,blacksquare2.gif,pic25.bmp,Mask.bmp,0120716,12:15:05,4.0.9.0,3,blackindirect,4,8,2209,plus2,0,b11.bmp,Judgeindirect,blacksquare2.gif,pic20.bmp,Mask.bmp,0120716,12:15:05,4.0.9.0,3,whiteindirect,4,9,1886,plus2,0,w07.bmp,Judgeindirect,blacksquare2.gif,pic23.bmp,Mask.bmp,0120716,12:15:05,4.0.9.0,3,neutral,4,10,3259,plus2,0,GREY.bmp,Judgeindirect,blacksquare2.gif,pic48.bmp,Mask.bmp,0120716,12:15:05,4.0.9.0,3,neutral,4,11,3493,plus2,0,GREY.bmp,Judgeindirect,blacksquare2.gif,pic69.bmp,Mask.bmp,0120716,12:15:05,4.0.9.0,3,neutral,4,12,1659,plus2,0,GREY.bmp,Judgeindirect,blacksquare2.gif,pic52.bmp,Mask.bmp,0120716,12:15:05,4.0.9.0,3,blackindirect,4,13,2492,plus2,0,b10.bmp,Judgeindirect,blacksquare2.gif,pic14.bmp,Mask.bmp,0120716,12:15:05,4.0.9.0,3,blackindirect,4,14,2048,plus2,0,b07.bmp,Judgeindirect,blacksquare2.gif,pic36.bmp,Mask.bmp,0120716,12:15:05,4.0.9.0,3,blackindirect,4,15,1714,plus2,0,b09.bmp,Judgeindirect,blacksquare2.gif,pic65.bmp,Mask.bmp,0120716,12:15:05,4.0.9.0,3,blackindirect,4,16,1666,plus2,0,b08.bmp,Judgeindirect,blacksquare2.gif,pic31.bmp,Mask.bmp,0120716,12:15:05,4.0.9.0,3,blackindirect,4,17,1377,plus2,0,b01.bmp,Judgeindirect,blacksquare2.gif,pic1.bmp,Mask.bmp,0120716,12:15:05,4.0.9.0,3,blackindirect,4,18,1662,plus2,0,b12.bmp,Judgeindirect,blacksquare2.gif,pic75.bmp,Mask.bmp,0120716,12:15:05,4.0.9.0,3,neutral,4,19,1980,plus1,0,GREY.bmp,Judgeindirect,blacksquare2.gif,pic34.bmp,Mask.bmp,0120716,12:15:05,4.0.9.0,3,whiteindirect,4,20,1587,plus2,0,w05.bmp,Judgeindirect,blacksquare2.gif,pic10.bmp,Mask.bmp,0120716,12:15:05,4.0.9.0,3,whiteindirect,4,21,1346,plus2,0,w01.bmp,Judgeindirect,blacksquare2.gif,pic26.bmp,Mask.bmp,0120716,12:15:05,4.0.9.0,3,neutral,4,22,924,plus1,0,GREY.bmp,Judgeindirect,blacksquare2.gif,pic22.bmp,Mask.bmp,0120716,12:15:05,4.0.9.0,3,blackindirect,4,23,1459,plus2,0,b06.bmp,Judgeindirect,blacksquare2.gif,pic68.bmp,Mask.bmp,0120716,12:15:05,4.0.9.0,3,blackindirect,4,24,883,plus2,0,b04.bmp,Judgeindirect,blacksquare2.gif,pic38.bmp,Mask.bmp,0120716,12:15:05,4.0.9.0,3,whiteindirect,4,25,786,plus2,0,w06.bmp,Judgeindirect,blacksquare2.gif,pic24.bmp,Mask.bmp,0120716,12:15:05,4.0.9.0,3,blackindirect,4,26,2189,plus2,0,b05.bmp,Judgeindirect,blacksquare2.gif,pic59.bmp,Mask.bmp,0120716,12:15:05,4.0.9.0,3,whiteindirect,4,27,1911,plus2,0,b12.jpg,Judgeindirect,blacksquare2.gif,pic9.bmp,Mask.bmp,0120716,12:15:05,4.0.9.0,3,neutral,4,28,1757,plus1,0,GREY.bmp,Judgeindirect,blacksquare2.gif,pic72.bmp,Mask.bmp,0120716,12:15:05,4.0.9.0,3,whiteindirect,4,29,2013,plus2,0,b11.jpg,Judgeindirect,blacksquare2.gif,pic12.bmp,Mask.bmp,0120716,12:15:05,4.0.9.0,3,neutral,4,30,1627,plus1,0,GREY.bmp,Judgeindirect,blacksquare2.gif,pic73.bmp,Mask.bmp,0120716,12:15:05,4.0.9.0,3,neutral,4,31,1081,plus1,0,GREY.bmp,Judgeindirect,blacksquare2.gif,pic74.bmp,Mask.bmp,0120716,12:15:05,4.0.9.0,3,blackindirect,4,32,1253,plus2,0,b12.bmp,Judgeindirect,blacksquare2.gif,pic6.bmp,Mask.bmp,0120716,12:15:05,4.0.9.0,3,neutral,4,33,1268,plus1,0,GREY.bmp,Judgeindirect,blacksquare2.gif,pic21.bmp,Mask.bmp,0120716,12:15:05,4.0.9.0,3,neutral,4,34,675,plus1,0,GREY.bmp,Judgeindirect,blacksquare2.gif,pic45.bmp,Mask.bmp,0120716,12:15:05,4.0.9.0,3,neutral,4,35,1042,plus1,0,GREY.bmp,Judgeindirect,blacksquare2.gif,pic11.bmp,Mask.bmp,0120716,12:15:05,4.0.9.0,3,blackindirect,4,36,1113,plus2,0,b10.bmp,Judgeindirect,blacksquare2.gif,pic41.bmp,Mask.bmp,0120716,12:15:05,4.0.9.0,3,whiteindirect,4,37,712,plus2,0,w09.bmp,Judgeindirect,blacksquare2.gif,pic40.bmp,Mask.bmp,0120716,12:15:05,4.0.9.0,3,blackindirect,4,38,2132,plus2,0,b01.bmp,Judgeindirect,blacksquare2.gif,pic15.bmp,Mask.bmp,0120716,12:15:05,4.0.9.0,3,neutral,4,39,798,plus1,0,GREY.bmp,Judgeindirect,blacksquare2.gif,pic29.bmp,Mask.bmp,0120716,12:15:05,4.0.9.0,3,neutral,4,40,695,plus1,0,GREY.bmp,Judgeindirect,blacksquare2.gif,pic4.bmp,Mask.bmp,0120716,12:15:05,4.0.9.0,3,whiteindirect,4,41,887,plus2,0,w04.bmp,Judgeindirect,blacksquare2.gif,pic56.bmp,Mask.bmp,0120716,12:15:05,4.0.9.0,3,whiteindirect,4,42,1416,plus2,0,b10.jpg,Judgeindirect,blacksquare2.gif,pic50.bmp,Mask.bmp,0120716,12:15:05,4.0.9.0,3,whiteindirect,4,43,1004,plus2,0,w08.bmp,Judgeindirect,blacksquare2.gif,pic30.bmp,Mask.bmp,0120716,12:15:05,4.0.9.0,3,whiteindirect,4,44,1085,plus2,0,w03.bmp,Judgeindirect,blacksquare2.gif,pic43.bmp,Mask.bmp,0120716,12:15:05,4.0.9.0,3,neutral,4,45,1241,plus1,0,GREY.bmp,Judgeindirect,blacksquare2.gif,pic70.bmp,Mask.bmp,0120716,12:15:05,4.0.9.0,3,whiteindirect,4,46,1207,plus2,0,w02.bmp,Judgeindirect,blacksquare2.gif,pic27.bmp,Mask.bmp,0120716,12:15:05,4.0.9.0,3,whiteindirect,4,47,587,plus2,0,b12.jpg,Judgeindirect,blacksquare2.gif,pic39.bmp,Mask.bmp,0120716,12:15:05,4.0.9.0,3,whiteindirect,4,48,1127,plus2,0,w09.bmp,Judgeindirect,blacksquare2.gif,pic66.bmp,Mask.bmp,0120716,12:15:05,4.0.9.0,3,blackindirect,4,49,635,plus2,0,b09.bmp,Judgeindirect,blacksquare2.gif,pic46.bmp,Mask.bmp,0120716,12:15:05,4.0.9.0,3,neutral,4,50,2088,plus1,0,GREY.bmp,Judgeindirect,blacksquare2.gif,pic47.bmp,Mask.bmp,0120716,12:15:05,4.0.9.0,3,whiteindirect,4,51,1089,plus2,0,b11.jpg,Judgeindirect,blacksquare2.gif,pic17.bmp,Mask.bmp,0120716,12:15:05,4.0.9.0,3,whiteindirect,4,52,1308,plus2,0,w04.bmp,Judgeindirect,blacksquare2.gif,pic19.bmp,Mask.bmp,0120716,12:15:05,4.0.9.0,3,neutral,4,53,2081,plus1,0,GREY.bmp,Judgeindirect,blacksquare2.gif,pic33.bmp,Mask.bmp,0120716,12:15:05,4.0.9.0,3,whiteindirect,4,54,723,plus2,0,w06.bmp,Judgeindirect,blacksquare2.gif,pic37.bmp,Mask.bmp,0120716,12:15:05,4.0.9.0,3,whiteindirect,4,55,1052,plus2,0,b10.jpg,Judgeindirect,blacksquare2.gif,pic62.bmp,Mask.bmp,0120716,12:15:05,4.0.9.0,3,blackindirect,4,56,954,plus2,0,b03.bmp,Judgeindirect,blacksquare2.gif,pic63.bmp,Mask.bmp,0120716,12:15:05,4.0.9.0,3,neutral,4,57,1119,plus1,0,GREY.bmp,Judgeindirect,blacksquare2.gif,pic60.bmp,Mask.bmp,0120716,12:15:05,4.0.9.0,3,blackindirect,4,58,1016,plus2,0,b06.bmp,Judgeindirect,blacksquare2.gif,pic8.bmp,Mask.bmp,0120716,12:15:05,4.0.9.0,3,neutral,4,59,2007,plus1,0,GREY.bmp,Judgeindirect,blacksquare2.gif,pic18.bmp,Mask.bmp,0120716,12:15:05,4.0.9.0,3,neutral,4,60,744,plus1,0,GREY.bmp,Judgeindirect,blacksquare2.gif,pic49.bmp,Mask.bmp,0120716,12:15:05,4.0.9.0,3,whiteindirect,4,61,1185,plus2,0,w08.bmp,Judgeindirect,blacksquare2.gif,pic67.bmp,Mask.bmp,0120716,12:15:05,4.0.9.0,3,neutral,4,62,1282,plus1,0,GREY.bmp,Judgeindirect,blacksquare2.gif,pic53.bmp,Mask.bmp,0120716,12:15:05,4.0.9.0,3,whiteindirect,4,63,1019,plus2,0,w03.bmp,Judgeindirect,blacksquare2.gif,pic55.bmp,Mask.bmp,0120716,12:15:05,4.0.9.0,3,blackindirect,4,64,821,plus2,0,b08.bmp,Judgeindirect,blacksquare2.gif,pic3.bmp,Mask.bmp,0120716,12:15:05,4.0.9.0,3,blackindirect,4,65,775,plus2,0,b02.bmp,Judgeindirect,blacksquare2.gif,pic71.bmp,Mask.bmp,0120716,12:15:05,4.0.9.0,3,neutral,4,66,819,plus1,0,GREY.bmp,Judgeindirect,blacksquare2.gif,pic2.bmp,Mask.bmp,0120716,12:15:05,4.0.9.0,3,blackindirect,4,67,804,plus2,0,b07.bmp,Judgeindirect,blacksquare2.gif,pic51.bmp,Mask.bmp,0120716,12:15:05,4.0.9.0,3,blackindirect,4,68,850,plus2,0,b11.bmp,Judgeindirect,blacksquare2.gif,pic42.bmp,Mask.bmp,0120716,12:15:05,4.0.9.0,3,neutral,4,69,992,plus1,0,GREY.bmp,Judgeindirect,blacksquare2.gif,pic64.bmp,Mask.bmp,0120716,12:15:05,4.0.9.0,3,whiteindirect,4,70,952,plus2,0,w05.bmp,Judgeindirect,blacksquare2.gif,pic61.bmp,Mask.bmp,0120716,12:15:05,4.0.9.0,3,whiteindirect,4,71,695,plus2,0,w01.bmp,Judgeindirect,blacksquare2.gif,pic13.bmp,Mask.bmp,0120716,12:15:05,4.0.9.0,3,whiteindirect,4,72,1160,plus2,0,w07.bmp,Judgeindirect,blacksquare2.gif,pic32.bmp,Mask.bmp,0120716,12:15:05,4.0.9.0,3,blackdirect,6,1,4108,plus1,0,b06.bmp,Judgedirect,blacksquare2.gif,pic105.bmp,Mask.bmp,0120716,12:15:05,4.0.9.0,3,whitedirect,6,2,926,plus1,0,w02.bmp,Judgedirect,blacksquare2.gif,pic106.bmp,Mask.bmp,0120716,12:15:05,4.0.9.0,3,blackdirect,6,3,696,plus1,0,b11.bmp,Judgedirect,blacksquare2.gif,pic100.bmp,Mask.bmp,0120716,12:15:05,4.0.9.0,3,whitedirect,6,4,676,plus2,0,w06.bmp,Judgedirect,blacksquare2.gif,pic110.bmp,Mask.bmp,0120716,12:15:05,4.0.9.0,3,blackdirect,6,5,965,plus1,0,b07.bmp,Judgedirect,blacksquare2.gif,pic117.bmp,Mask.bmp,0120716,12:15:05,4.0.9.0,3,whitedirect,6,6,569,plus1,0,w09.bmp,Judgedirect,blacksquare2.gif,pic116.bmp,Mask.bmp,0120716,12:15:05,4.0.9.0,3,blackdirect,6,7,900,plus2,0,b10.bmp,Judgedirect,blacksquare2.gif,pic82.bmp,Mask.bmp,0120716,12:15:05,4.0.9.0,3,whitedirect,6,8,480,plus2,0,w07.bmp,Judgedirect,blacksquare2.gif,pic107.bmp,Mask.bmp,0120716,12:15:05,4.0.9.0,3,blackdirect,6,9,502,plus2,0,b03.bmp,Judgedirect,blacksquare2.gif,pic112.bmp,Mask.bmp,0120716,12:15:05,4.0.9.0,3,whitedirect,6,10,510,plus2,0,b10.jpg,Judgedirect,blacksquare2.gif,pic78.bmp,Mask.bmp,0120716,12:15:05,4.0.9.0,3,blackdirect,6,11,552,plus2,0,b05.bmp,Judgedirect,blacksquare2.gif,pic114.bmp,Mask.bmp,0120716,12:15:05,4.0.9.0,3,whitedirect,6,12,570,plus2,0,w08.bmp,Judgedirect,blacksquare2.gif,pic113.bmp,Mask.bmp,0120716,12:15:05,4.0.9.0,3,blackdirect,6,13,700,plus1,0,b12.bmp,Judgedirect,blacksquare2.gif,pic118.bmp,Mask.bmp,0120716,12:15:05,4.0.9.0,3,whitedirect,6,14,649,plus1,0,w04.bmp,Judgedirect,blacksquare2.gif,pic103.bmp,Mask.bmp,0120716,12:15:05,4.0.9.0,3,blackdirect,6,15,964,plus1,0,b01.bmp,Judgedirect,blacksquare2.gif,pic81.bmp,Mask.bmp,0120716,12:15:05,4.0.9.0,3,whitedirect,6,16,678,plus2,0,w03.bmp,Judgedirect,blacksquare2.gif,pic108.bmp,Mask.bmp,0120716,12:15:05,4.0.9.0,3,blackdirect,6,17,1406,plus2,0,b02.bmp,Judgedirect,blacksquare2.gif,pic104.bmp,Mask.bmp,0120716,12:15:05,4.0.9.0,3,whitedirect,6,18,1056,plus1,0,b11.jpg,Judgedirect,blacksquare2.gif,pic115.bmp,Mask.bmp,0120716,12:15:05,4.0.9.0,3,blackdirect,6,19,1489,plus2,0,b08.bmp,Judgedirect,blacksquare2.gif,pic101.bmp,Mask.bmp,0120716,12:15:05,4.0.9.0,3,whitedirect,6,20,871,plus1,0,b12.jpg,Judgedirect,blacksquare2.gif,pic109.bmp,Mask.bmp,0120716,12:15:05,4.0.9.0,3,blackdirect,6,21,428,plus1,0,b04.bmp,Judgedirect,blacksquare2.gif,pic111.bmp,Mask.bmp,0120716,12:15:05,4.0.9.0,3,whitedirect,6,22,628,plus2,0,w01.bmp,Judgedirect,blacksquare2.gif,pic80.bmp,Mask.bmp,0120716,12:15:05,4.0.9.0,3,blackdirect,6,23,535,plus2,0,b09.bmp,Judgedirect,blacksquare2.gif,pic79.bmp,Mask.bmp,0120716,12:15:05,4.0.9.0,3,whitedirect,6,24,441,plus2,0,w05.bmp,Judgedirect,blacksquare2.gif,pic102.bmp,Mask.bmp,0120716,12:15:05,4.0.9.0,3,sesso,7,1,14547,2,1,0,demo,0,0,0,0120716,12:15:05,4.0.9.0,3,anni,7,1,14547,20,1,0,demo,0,0,0,0120716,12:15:05,4.0.9.0,3,etnia,7,1,14547,Caucasico/Europeo,1,0,demo,0,0,0,0121316,12:13:13,4.0.9.0,4,practice,1,1,35396,57,1,sample.bmp,orient1,blacksquare2.gif,pic76.bmp,Mask.bmp,0121316,12:13:13,4.0.9.0,4,whitedirect,4,1,5342,minus1,0,w03.bmp,Judgedirect,blacksquare2.gif,pic80.bmp,Mask.bmp,0121316,12:13:13,4.0.9.0,4,blackdirect,4,2,3936,plus1,0,b01.bmp,Judgedirect,blacksquare2.gif,pic110.bmp,Mask.bmp,0121316,12:13:13,4.0.9.0,4,whitedirect,4,3,3475,plus2,0,w09.bmp,Judgedirect,blacksquare2.gif,pic117.bmp,Mask.bmp,0121316,12:13:13,4.0.9.0,4,blackdirect,4,4,1386,plus1,0,b10.bmp,Judgedirect,blacksquare2.gif,pic105.bmp,Mask.bmp,0121316,12:13:13,4.0.9.0,4,whitedirect,4,5,1658,minus1,0,w06.bmp,Judgedirect,blacksquare2.gif,pic103.bmp,Mask.bmp,0121316,12:13:13,4.0.9.0,4,blackdirect,4,6,1617,plus1,0,b08.bmp,Judgedirect,blacksquare2.gif,pic81.bmp,Mask.bmp,0121316,12:13:13,4.0.9.0,4,whitedirect,4,7,2396,minus2,0,b12.jpg,Judgedirect,blacksquare2.gif,pic79.bmp,Mask.bmp,0121316,12:13:13,4.0.9.0,4,blackdirect,4,8,1559,minus1,0,b11.bmp,Judgedirect,blacksquare2.gif,pic111.bmp,Mask.bmp,0121316,12:13:13,4.0.9.0,4,whitedirect,4,9,1314,minus2,0,w04.bmp,Judgedirect,blacksquare2.gif,pic118.bmp,Mask.bmp,0121316,12:13:13,4.0.9.0,4,blackdirect,4,10,1494,minus1,0,b12.bmp,Judgedirect,blacksquare2.gif,pic104.bmp,Mask.bmp,0121316,12:13:13,4.0.9.0,4,whitedirect,4,11,1019,plus1,0,b11.jpg,Judgedirect,blacksquare2.gif,pic107.bmp,Mask.bmp,0121316,12:13:13,4.0.9.0,4,blackdirect,4,12,554,plus1,0,b05.bmp,Judgedirect,blacksquare2.gif,pic102.bmp,Mask.bmp,0121316,12:13:13,4.0.9.0,4,whitedirect,4,13,418,plus1,0,b10.jpg,Judgedirect,blacksquare2.gif,pic114.bmp,Mask.bmp,0121316,12:13:13,4.0.9.0,4,blackdirect,4,14,1897,minus1,0,b04.bmp,Judgedirect,blacksquare2.gif,pic109.bmp,Mask.bmp,0121316,12:13:13,4.0.9.0,4,whitedirect,4,15,1132,plus2,0,w08.bmp,Judgedirect,blacksquare2.gif,pic108.bmp,Mask.bmp,0121316,12:13:13,4.0.9.0,4,blackdirect,4,16,1596,plus1,0,b07.bmp,Judgedirect,blacksquare2.gif,pic115.bmp,Mask.bmp,0121316,12:13:13,4.0.9.0,4,whitedirect,4,17,1247,plus1,0,w01.bmp,Judgedirect,blacksquare2.gif,pic82.bmp,Mask.bmp,0121316,12:13:13,4.0.9.0,4,blackdirect,4,18,1837,plus2,0,b03.bmp,Judgedirect,blacksquare2.gif,pic116.bmp,Mask.bmp,0121316,12:13:13,4.0.9.0,4,whitedirect,4,19,1368,plus1,0,w02.bmp,Judgedirect,blacksquare2.gif,pic100.bmp,Mask.bmp,0121316,12:13:13,4.0.9.0,4,blackdirect,4,20,1764,minus1,0,b09.bmp,Judgedirect,blacksquare2.gif,pic112.bmp,Mask.bmp,0121316,12:13:13,4.0.9.0,4,whitedirect,4,21,1163,minus1,0,w07.bmp,Judgedirect,blacksquare2.gif,pic106.bmp,Mask.bmp,0121316,12:13:13,4.0.9.0,4,blackdirect,4,22,1351,minus1,0,b06.bmp,Judgedirect,blacksquare2.gif,pic101.bmp,Mask.bmp,0121316,12:13:13,4.0.9.0,4,whitedirect,4,23,2210,minus2,0,w05.bmp,Judgedirect,blacksquare2.gif,pic113.bmp,Mask.bmp,0121316,12:13:13,4.0.9.0,4,blackdirect,4,24,903,plus1,0,b02.bmp,Judgedirect,blacksquare2.gif,pic78.bmp,Mask.bmp,0121316,12:13:13,4.0.9.0,4,blackindirect,6,1,4842,plus1,0,b11.bmp,Judgeindirect,blacksquare2.gif,pic32.bmp,Mask.bmp,0121316,12:13:13,4.0.9.0,4,whiteindirect,6,2,3805,plus1,0,w08.bmp,Judgeindirect,blacksquare2.gif,pic6.bmp,Mask.bmp,0121316,12:13:13,4.0.9.0,4,blackindirect,6,3,1399,plus1,0,b03.bmp,Judgeindirect,blacksquare2.gif,pic53.bmp,Mask.bmp,0121316,12:13:13,4.0.9.0,4,blackindirect,6,4,1347,plus1,0,b12.bmp,Judgeindirect,blacksquare2.gif,pic5.bmp,Mask.bmp,0121316,12:13:13,4.0.9.0,4,whiteindirect,6,5,1645,minus1,0,w04.bmp,Judgeindirect,blacksquare2.gif,pic73.bmp,Mask.bmp,0121316,12:13:13,4.0.9.0,4,whiteindirect,6,6,1447,plus1,0,w02.bmp,Judgeindirect,blacksquare2.gif,pic23.bmp,Mask.bmp,0121316,12:13:13,4.0.9.0,4,blackindirect,6,7,947,plus1,0,b09.bmp,Judgeindirect,blacksquare2.gif,pic47.bmp,Mask.bmp,0121316,12:13:13,4.0.9.0,4,blackindirect,6,8,1753,plus1,0,b07.bmp,Judgeindirect,blacksquare2.gif,pic66.bmp,Mask.bmp,0121316,12:13:13,4.0.9.0,4,whiteindirect,6,9,1870,plus2,0,w07.bmp,Judgeindirect,blacksquare2.gif,pic14.bmp,Mask.bmp,0121316,12:13:13,4.0.9.0,4,blackindirect,6,10,1180,plus2,0,b05.bmp,Judgeindirect,blacksquare2.gif,pic42.bmp,Mask.bmp,0121316,12:13:13,4.0.9.0,4,blackindirect,6,11,1214,plus2,0,b10.bmp,Judgeindirect,blacksquare2.gif,pic12.bmp,Mask.bmp,0121316,12:13:13,4.0.9.0,4,neutral,6,12,912,plus1,0,GREY.bmp,Judgeindirect,blacksquare2.gif,pic36.bmp,Mask.bmp,0121316,12:13:13,4.0.9.0,4,neutral,6,13,1572,plus1,0,GREY.bmp,Judgeindirect,blacksquare2.gif,pic50.bmp,Mask.bmp,0121316,12:13:13,4.0.9.0,4,neutral,6,14,1861,plus2,0,GREY.bmp,Judgeindirect,blacksquare2.gif,pic38.bmp,Mask.bmp,0121316,12:13:13,4.0.9.0,4,blackindirect,6,15,1869,minus1,0,b01.bmp,Judgeindirect,blacksquare2.gif,pic70.bmp,Mask.bmp,0121316,12:13:13,4.0.9.0,4,neutral,6,16,1238,plus1,0,GREY.bmp,Judgeindirect,blacksquare2.gif,pic9.bmp,Mask.bmp,0121316,12:13:13,4.0.9.0,4,whiteindirect,6,17,1204,plus1,0,b11.jpg,Judgeindirect,blacksquare2.gif,pic29.bmp,Mask.bmp,0121316,12:13:13,4.0.9.0,4,whiteindirect,6,18,2913,minus2,0,w06.bmp,Judgeindirect,blacksquare2.gif,pic43.bmp,Mask.bmp,0121316,12:13:13,4.0.9.0,4,neutral,6,19,1759,plus1,0,GREY.bmp,Judgeindirect,blacksquare2.gif,pic2.bmp,Mask.bmp,0121316,12:13:13,4.0.9.0,4,neutral,6,20,2642,plus2,0,GREY.bmp,Judgeindirect,blacksquare2.gif,pic71.bmp,Mask.bmp,0121316,12:13:13,4.0.9.0,4,whiteindirect,6,21,1630,plus1,0,b10.jpg,Judgeindirect,blacksquare2.gif,pic25.bmp,Mask.bmp,0121316,12:13:13,4.0.9.0,4,whiteindirect,6,22,2553,minus1,0,w03.bmp,Judgeindirect,blacksquare2.gif,pic45.bmp,Mask.bmp,0121316,12:13:13,4.0.9.0,4,whiteindirect,6,23,1071,plus1,0,w05.bmp,Judgeindirect,blacksquare2.gif,pic72.bmp,Mask.bmp,0121316,12:13:13,4.0.9.0,4,blackindirect,6,24,897,plus1,0,b04.bmp,Judgeindirect,blacksquare2.gif,pic1.bmp,Mask.bmp,0121316,12:13:13,4.0.9.0,4,blackindirect,6,25,1836,plus2,0,b06.bmp,Judgeindirect,blacksquare2.gif,pic69.bmp,Mask.bmp,0121316,12:13:13,4.0.9.0,4,blackindirect,6,26,1161,plus2,0,b02.bmp,Judgeindirect,blacksquare2.gif,pic39.bmp,Mask.bmp,0121316,12:13:13,4.0.9.0,4,neutral,6,27,1216,plus1,0,GREY.bmp,Judgeindirect,blacksquare2.gif,pic54.bmp,Mask.bmp,0121316,12:13:13,4.0.9.0,4,blackindirect,6,28,1242,minus1,0,b08.bmp,Judgeindirect,blacksquare2.gif,pic52.bmp,Mask.bmp,0121316,12:13:13,4.0.9.0,4,blackindirect,6,29,1348,plus1,0,b05.bmp,Judgeindirect,blacksquare2.gif,pic18.bmp,Mask.bmp,0121316,12:13:13,4.0.9.0,4,neutral,6,30,1222,plus2,0,GREY.bmp,Judgeindirect,blacksquare2.gif,pic28.bmp,Mask.bmp,0121316,12:13:13,4.0.9.0,4,whiteindirect,6,31,1322,plus2,0,w09.bmp,Judgeindirect,blacksquare2.gif,pic3.bmp,Mask.bmp,0121316,12:13:13,4.0.9.0,4,neutral,6,32,1242,plus1,0,GREY.bmp,Judgeindirect,blacksquare2.gif,pic46.bmp,Mask.bmp,0121316,12:13:13,4.0.9.0,4,neutral,6,33,755,plus1,0,GREY.bmp,Judgeindirect,blacksquare2.gif,pic51.bmp,Mask.bmp,0121316,12:13:13,4.0.9.0,4,whiteindirect,6,34,1244,plus1,0,w01.bmp,Judgeindirect,blacksquare2.gif,pic55.bmp,Mask.bmp,0121316,12:13:13,4.0.9.0,4,whiteindirect,6,35,819,plus1,0,b12.jpg,Judgeindirect,blacksquare2.gif,pic19.bmp,Mask.bmp,0121316,12:13:13,4.0.9.0,4,neutral,6,36,1276,plus1,0,GREY.bmp,Judgeindirect,blacksquare2.gif,pic40.bmp,Mask.bmp,0121316,12:13:13,4.0.9.0,4,blackindirect,6,37,1777,minus1,0,b04.bmp,Judgeindirect,blacksquare2.gif,pic63.bmp,Mask.bmp,0121316,12:13:13,4.0.9.0,4,neutral,6,38,1150,plus2,0,GREY.bmp,Judgeindirect,blacksquare2.gif,pic30.bmp,Mask.bmp,0121316,12:13:13,4.0.9.0,4,blackindirect,6,39,1205,plus2,0,b06.bmp,Judgeindirect,blacksquare2.gif,pic41.bmp,Mask.bmp,0121316,12:13:13,4.0.9.0,4,whiteindirect,6,40,1007,plus1,0,w04.bmp,Judgeindirect,blacksquare2.gif,pic75.bmp,Mask.bmp,0121316,12:13:13,4.0.9.0,4,neutral,6,41,1853,plus1,0,GREY.bmp,Judgeindirect,blacksquare2.gif,pic26.bmp,Mask.bmp,0121316,12:13:13,4.0.9.0,4,whiteindirect,6,42,1552,minus1,0,w08.bmp,Judgeindirect,blacksquare2.gif,pic64.bmp,Mask.bmp,0121316,12:13:13,4.0.9.0,4,neutral,6,43,1461,plus2,0,GREY.bmp,Judgeindirect,blacksquare2.gif,pic31.bmp,Mask.bmp,0121316,12:13:13,4.0.9.0,4,blackindirect,6,44,2197,minus1,0,b07.bmp,Judgeindirect,blacksquare2.gif,pic56.bmp,Mask.bmp,0121316,12:13:13,4.0.9.0,4,neutral,6,45,1343,plus1,0,GREY.bmp,Judgeindirect,blacksquare2.gif,pic13.bmp,Mask.bmp,0121316,12:13:13,4.0.9.0,4,neutral,6,46,718,plus1,0,GREY.bmp,Judgeindirect,blacksquare2.gif,pic57.bmp,Mask.bmp,0121316,12:13:13,4.0.9.0,4,whiteindirect,6,47,1216,plus1,0,w09.bmp,Judgeindirect,blacksquare2.gif,pic16.bmp,Mask.bmp,0121316,12:13:13,4.0.9.0,4,neutral,6,48,1661,plus2,0,GREY.bmp,Judgeindirect,blacksquare2.gif,pic22.bmp,Mask.bmp,0121316,12:13:13,4.0.9.0,4,whiteindirect,6,49,885,plus1,0,b10.jpg,Judgeindirect,blacksquare2.gif,pic7.bmp,Mask.bmp,0121316,12:13:13,4.0.9.0,4,whiteindirect,6,50,1025,plus1,0,w01.bmp,Judgeindirect,blacksquare2.gif,pic17.bmp,Mask.bmp,0121316,12:13:13,4.0.9.0,4,blackindirect,6,51,860,plus1,0,b12.bmp,Judgeindirect,blacksquare2.gif,pic10.bmp,Mask.bmp,0121316,12:13:13,4.0.9.0,4,blackindirect,6,52,699,plus1,0,b11.bmp,Judgeindirect,blacksquare2.gif,pic11.bmp,Mask.bmp,0121316,12:13:13,4.0.9.0,4,whiteindirect,6,53,1304,plus1,0,w06.bmp,Judgeindirect,blacksquare2.gif,pic68.bmp,Mask.bmp,0121316,12:13:13,4.0.9.0,4,neutral,6,54,1703,plus2,0,GREY.bmp,Judgeindirect,blacksquare2.gif,pic60.bmp,Mask.bmp,0121316,12:13:13,4.0.9.0,4,neutral,6,55,1124,plus1,0,GREY.bmp,Judgeindirect,blacksquare2.gif,pic49.bmp,Mask.bmp,0121316,12:13:13,4.0.9.0,4,blackindirect,6,56,1305,minus1,0,b10.bmp,Judgeindirect,blacksquare2.gif,pic44.bmp,Mask.bmp,0121316,12:13:13,4.0.9.0,4,neutral,6,57,1191,plus2,0,GREY.bmp,Judgeindirect,blacksquare2.gif,pic62.bmp,Mask.bmp,0121316,12:13:13,4.0.9.0,4,blackindirect,6,58,1194,plus1,0,b08.bmp,Judgeindirect,blacksquare2.gif,pic48.bmp,Mask.bmp,0121316,12:13:13,4.0.9.0,4,whiteindirect,6,59,621,plus1,0,w05.bmp,Judgeindirect,blacksquare2.gif,pic8.bmp,Mask.bmp,0121316,12:13:13,4.0.9.0,4,whiteindirect,6,60,1119,plus1,0,b11.jpg,Judgeindirect,blacksquare2.gif,pic33.bmp,Mask.bmp,0121316,12:13:13,4.0.9.0,4,blackindirect,6,61,1485,plus1,0,b09.bmp,Judgeindirect,blacksquare2.gif,pic65.bmp,Mask.bmp,0121316,12:13:13,4.0.9.0,4,blackindirect,6,62,1242,plus2,0,b02.bmp,Judgeindirect,blacksquare2.gif,pic27.bmp,Mask.bmp,0121316,12:13:13,4.0.9.0,4,neutral,6,63,1020,plus1,0,GREY.bmp,Judgeindirect,blacksquare2.gif,pic37.bmp,Mask.bmp,0121316,12:13:13,4.0.9.0,4,neutral,6,64,540,plus1,0,GREY.bmp,Judgeindirect,blacksquare2.gif,pic20.bmp,Mask.bmp,0121316,12:13:13,4.0.9.0,4,neutral,6,65,1089,plus1,0,GREY.bmp,Judgeindirect,blacksquare2.gif,pic59.bmp,Mask.bmp,0121316,12:13:13,4.0.9.0,4,blackindirect,6,66,2089,plus2,0,b03.bmp,Judgeindirect,blacksquare2.gif,pic15.bmp,Mask.bmp,0121316,12:13:13,4.0.9.0,4,neutral,6,67,1312,plus1,0,GREY.bmp,Judgeindirect,blacksquare2.gif,pic21.bmp,Mask.bmp,0121316,12:13:13,4.0.9.0,4,whiteindirect,6,68,821,plus1,0,b12.jpg,Judgeindirect,blacksquare2.gif,pic67.bmp,Mask.bmp,0121316,12:13:13,4.0.9.0,4,blackindirect,6,69,948,plus1,0,b01.bmp,Judgeindirect,blacksquare2.gif,pic61.bmp,Mask.bmp,0121316,12:13:13,4.0.9.0,4,whiteindirect,6,70,831,plus1,0,w02.bmp,Judgeindirect,blacksquare2.gif,pic58.bmp,Mask.bmp,0121316,12:13:13,4.0.9.0,4,whiteindirect,6,71,2069,minus1,0,w03.bmp,Judgeindirect,blacksquare2.gif,pic24.bmp,Mask.bmp,0121316,12:13:13,4.0.9.0,4,whiteindirect,6,72,1742,minus2,0,w07.bmp,Judgeindirect,blacksquare2.gif,pic34.bmp,Mask.bmp,0121316,12:13:13,4.0.9.0,4,sesso,7,1,12172,2,1,0,demo,0,0,0,0121316,12:13:13,4.0.9.0,4,anni,7,1,12172,19,1,0,demo,0,0,0,0121316,12:13:13,4.0.9.0,4,etnia,7,1,12172,Caucasico/Europeo,1,0,demo,0,0,0,0121316,13:25:26,4.0.9.0,5,practice,1,1,22288,57,1,sample.bmp,orient1,blacksquare2.gif,pic76.bmp,Mask.bmp,0121316,13:25:26,4.0.9.0,5,blackdirect,4,1,7150,plus1,0,b02.bmp,Judgedirect,blacksquare2.gif,pic113.bmp,Mask.bmp,0121316,13:25:26,4.0.9.0,5,whitedirect,4,2,4132,minus1,0,w04.bmp,Judgedirect,blacksquare2.gif,pic103.bmp,Mask.bmp,0121316,13:25:26,4.0.9.0,5,blackdirect,4,3,2706,plus1,0,b08.bmp,Judgedirect,blacksquare2.gif,pic109.bmp,Mask.bmp,0121316,13:25:26,4.0.9.0,5,whitedirect,4,4,2845,minus2,0,w03.bmp,Judgedirect,blacksquare2.gif,pic100.bmp,Mask.bmp,0121316,13:25:26,4.0.9.0,5,blackdirect,4,5,3305,plus1,0,b04.bmp,Judgedirect,blacksquare2.gif,pic81.bmp,Mask.bmp,0121316,13:25:26,4.0.9.0,5,whitedirect,4,6,1658,plus2,0,w08.bmp,Judgedirect,blacksquare2.gif,pic79.bmp,Mask.bmp,0121316,13:25:26,4.0.9.0,5,blackdirect,4,7,788,plus2,0,b09.bmp,Judgedirect,blacksquare2.gif,pic118.bmp,Mask.bmp,0121316,13:25:26,4.0.9.0,5,whitedirect,4,8,456,plus2,0,b10.jpg,Judgedirect,blacksquare2.gif,pic80.bmp,Mask.bmp,0121316,13:25:26,4.0.9.0,5,blackdirect,4,9,1568,plus1,0,b06.bmp,Judgedirect,blacksquare2.gif,pic110.bmp,Mask.bmp,0121316,13:25:26,4.0.9.0,5,whitedirect,4,10,1166,minus1,0,w02.bmp,Judgedirect,blacksquare2.gif,pic101.bmp,Mask.bmp,0121316,13:25:26,4.0.9.0,5,blackdirect,4,11,1118,plus1,0,b10.bmp,Judgedirect,blacksquare2.gif,pic115.bmp,Mask.bmp,0121316,13:25:26,4.0.9.0,5,whitedirect,4,12,1922,minus2,0,b11.jpg,Judgedirect,blacksquare2.gif,pic114.bmp,Mask.bmp,0121316,13:25:26,4.0.9.0,5,blackdirect,4,13,1957,minus1,0,b05.bmp,Judgedirect,blacksquare2.gif,pic78.bmp,Mask.bmp,0121316,13:25:26,4.0.9.0,5,whitedirect,4,14,1748,minus2,0,b12.jpg,Judgedirect,blacksquare2.gif,pic105.bmp,Mask.bmp,0121316,13:25:26,4.0.9.0,5,blackdirect,4,15,941,minus2,0,b11.bmp,Judgedirect,blacksquare2.gif,pic116.bmp,Mask.bmp,0121316,13:25:26,4.0.9.0,5,whitedirect,4,16,1307,minus2,0,w09.bmp,Judgedirect,blacksquare2.gif,pic108.bmp,Mask.bmp,0121316,13:25:26,4.0.9.0,5,blackdirect,4,17,3502,plus1,0,b12.bmp,Judgedirect,blacksquare2.gif,pic117.bmp,Mask.bmp,0121316,13:25:26,4.0.9.0,5,whitedirect,4,18,1184,plus2,0,w01.bmp,Judgedirect,blacksquare2.gif,pic107.bmp,Mask.bmp,0121316,13:25:26,4.0.9.0,5,blackdirect,4,19,856,plus2,0,b03.bmp,Judgedirect,blacksquare2.gif,pic111.bmp,Mask.bmp,0121316,13:25:26,4.0.9.0,5,whitedirect,4,20,2208,plus2,0,w06.bmp,Judgedirect,blacksquare2.gif,pic82.bmp,Mask.bmp,0121316,13:25:26,4.0.9.0,5,blackdirect,4,21,620,plus2,0,b07.bmp,Judgedirect,blacksquare2.gif,pic112.bmp,Mask.bmp,0121316,13:25:26,4.0.9.0,5,whitedirect,4,22,1477,plus1,0,w05.bmp,Judgedirect,blacksquare2.gif,pic102.bmp,Mask.bmp,0121316,13:25:26,4.0.9.0,5,blackdirect,4,23,2107,minus1,0,b01.bmp,Judgedirect,blacksquare2.gif,pic106.bmp,Mask.bmp,0121316,13:25:26,4.0.9.0,5,whitedirect,4,24,2987,plus2,0,w07.bmp,Judgedirect,blacksquare2.gif,pic104.bmp,Mask.bmp,0121316,13:25:26,4.0.9.0,5,blackindirect,6,1,9895,plus1,0,b06.bmp,Judgeindirect,blacksquare2.gif,pic11.bmp,Mask.bmp,0121316,13:25:26,4.0.9.0,5,whiteindirect,6,2,5210,minus1,0,w03.bmp,Judgeindirect,blacksquare2.gif,pic2.bmp,Mask.bmp,0121316,13:25:26,4.0.9.0,5,blackindirect,6,3,18513,minus1,0,b12.bmp,Judgeindirect,blacksquare2.gif,pic5.bmp,Mask.bmp,0121316,13:25:26,4.0.9.0,5,whiteindirect,6,4,5033,plus1,0,b10.jpg,Judgeindirect,blacksquare2.gif,pic55.bmp,Mask.bmp,0121316,13:25:26,4.0.9.0,5,whiteindirect,6,5,2869,plus2,0,w01.bmp,Judgeindirect,blacksquare2.gif,pic71.bmp,Mask.bmp,0121316,13:25:26,4.0.9.0,5,neutral,6,6,1240,plus2,0,GREY.bmp,Judgeindirect,blacksquare2.gif,pic46.bmp,Mask.bmp,0121316,13:25:26,4.0.9.0,5,neutral,6,7,2096,plus1,0,GREY.bmp,Judgeindirect,blacksquare2.gif,pic68.bmp,Mask.bmp,0121316,13:25:26,4.0.9.0,5,whiteindirect,6,8,1833,plus2,0,b11.jpg,Judgeindirect,blacksquare2.gif,pic21.bmp,Mask.bmp,0121316,13:25:26,4.0.9.0,5,whiteindirect,6,9,1415,minus1,0,w09.bmp,Judgeindirect,blacksquare2.gif,pic54.bmp,Mask.bmp,0121316,13:25:26,4.0.9.0,5,whiteindirect,6,10,1551,plus2,0,w05.bmp,Judgeindirect,blacksquare2.gif,pic24.bmp,Mask.bmp,0121316,13:25:26,4.0.9.0,5,neutral,6,11,1460,minus2,0,GREY.bmp,Judgeindirect,blacksquare2.gif,pic70.bmp,Mask.bmp,0121316,13:25:26,4.0.9.0,5,blackindirect,6,12,1946,plus1,0,b03.bmp,Judgeindirect,blacksquare2.gif,pic13.bmp,Mask.bmp,0121316,13:25:26,4.0.9.0,5,blackindirect,6,13,1424,plus2,0,b01.bmp,Judgeindirect,blacksquare2.gif,pic9.bmp,Mask.bmp,0121316,13:25:26,4.0.9.0,5,blackindirect,6,14,794,plus2,0,b08.bmp,Judgeindirect,blacksquare2.gif,pic39.bmp,Mask.bmp,0121316,13:25:26,4.0.9.0,5,blackindirect,6,15,1141,plus1,0,b02.bmp,Judgeindirect,blacksquare2.gif,pic20.bmp,Mask.bmp,0121316,13:25:26,4.0.9.0,5,neutral,6,16,1300,minus1,0,GREY.bmp,Judgeindirect,blacksquare2.gif,pic53.bmp,Mask.bmp,0121316,13:25:26,4.0.9.0,5,blackindirect,6,17,1665,plus1,0,b07.bmp,Judgeindirect,blacksquare2.gif,pic58.bmp,Mask.bmp,0121316,13:25:26,4.0.9.0,5,blackindirect,6,18,1282,plus2,0,b09.bmp,Judgeindirect,blacksquare2.gif,pic44.bmp,Mask.bmp,0121316,13:25:26,4.0.9.0,5,neutral,6,19,1286,minus2,0,GREY.bmp,Judgeindirect,blacksquare2.gif,pic74.bmp,Mask.bmp,0121316,13:25:26,4.0.9.0,5,blackindirect,6,20,1321,minus2,0,b04.bmp,Judgeindirect,blacksquare2.gif,pic28.bmp,Mask.bmp,0121316,13:25:26,4.0.9.0,5,whiteindirect,6,21,706,minus2,0,w02.bmp,Judgeindirect,blacksquare2.gif,pic10.bmp,Mask.bmp,0121316,13:25:26,4.0.9.0,5,neutral,6,22,1767,minus1,0,GREY.bmp,Judgeindirect,blacksquare2.gif,pic4.bmp,Mask.bmp,0121316,13:25:26,4.0.9.0,5,blackindirect,6,23,1244,plus1,0,b05.bmp,Judgeindirect,blacksquare2.gif,pic32.bmp,Mask.bmp,0121316,13:25:26,4.0.9.0,5,whiteindirect,6,24,1444,minus1,0,w06.bmp,Judgeindirect,blacksquare2.gif,pic63.bmp,Mask.bmp,0121316,13:25:26,4.0.9.0,5,whiteindirect,6,25,1147,plus1,0,w08.bmp,Judgeindirect,blacksquare2.gif,pic19.bmp,Mask.bmp,0121316,13:25:26,4.0.9.0,5,blackindirect,6,26,1549,minus1,0,b10.bmp,Judgeindirect,blacksquare2.gif,pic56.bmp,Mask.bmp,0121316,13:25:26,4.0.9.0,5,neutral,6,27,1083,minus2,0,GREY.bmp,Judgeindirect,blacksquare2.gif,pic31.bmp,Mask.bmp,0121316,13:25:26,4.0.9.0,5,whiteindirect,6,28,755,minus2,0,w04.bmp,Judgeindirect,blacksquare2.gif,pic51.bmp,Mask.bmp,0121316,13:25:26,4.0.9.0,5,whiteindirect,6,29,604,minus2,0,w07.bmp,Judgeindirect,blacksquare2.gif,pic60.bmp,Mask.bmp,0121316,13:25:26,4.0.9.0,5,whiteindirect,6,30,1545,plus1,0,b12.jpg,Judgeindirect,blacksquare2.gif,pic41.bmp,Mask.bmp,0121316,13:25:26,4.0.9.0,5,blackindirect,6,31,1276,plus2,0,b11.bmp,Judgeindirect,blacksquare2.gif,pic17.bmp,Mask.bmp,0121316,13:25:26,4.0.9.0,5,neutral,6,32,653,plus2,0,GREY.bmp,Judgeindirect,blacksquare2.gif,pic22.bmp,Mask.bmp,0121316,13:25:26,4.0.9.0,5,whiteindirect,6,33,1126,minus1,0,w02.bmp,Judgeindirect,blacksquare2.gif,pic64.bmp,Mask.bmp,0121316,13:25:26,4.0.9.0,5,blackindirect,6,34,1227,plus2,0,b06.bmp,Judgeindirect,blacksquare2.gif,pic57.bmp,Mask.bmp,0121316,13:25:26,4.0.9.0,5,whiteindirect,6,35,534,plus2,0,b11.jpg,Judgeindirect,blacksquare2.gif,pic1.bmp,Mask.bmp,0121316,13:25:26,4.0.9.0,5,blackindirect,6,36,1159,minus1,0,b10.bmp,Judgeindirect,blacksquare2.gif,pic52.bmp,Mask.bmp,0121316,13:25:26,4.0.9.0,5,blackindirect,6,37,1407,plus2,0,b03.bmp,Judgeindirect,blacksquare2.gif,pic23.bmp,Mask.bmp,0121316,13:25:26,4.0.9.0,5,whiteindirect,6,38,1416,minus2,0,w03.bmp,Judgeindirect,blacksquare2.gif,pic26.bmp,Mask.bmp,0121316,13:25:26,4.0.9.0,5,whiteindirect,6,39,1192,plus1,0,w07.bmp,Judgeindirect,blacksquare2.gif,pic65.bmp,Mask.bmp,0121316,13:25:26,4.0.9.0,5,whiteindirect,6,40,1571,plus2,0,w08.bmp,Judgeindirect,blacksquare2.gif,pic38.bmp,Mask.bmp,0121316,13:25:26,4.0.9.0,5,blackindirect,6,41,1140,minus1,0,b05.bmp,Judgeindirect,blacksquare2.gif,pic25.bmp,Mask.bmp,0121316,13:25:26,4.0.9.0,5,blackindirect,6,42,1415,minus2,0,b11.bmp,Judgeindirect,blacksquare2.gif,pic15.bmp,Mask.bmp,0121316,13:25:26,4.0.9.0,5,whiteindirect,6,43,678,minus2,0,b10.jpg,Judgeindirect,blacksquare2.gif,pic47.bmp,Mask.bmp,0121316,13:25:26,4.0.9.0,5,blackindirect,6,44,1282,plus2,0,b01.bmp,Judgeindirect,blacksquare2.gif,pic30.bmp,Mask.bmp,0121316,13:25:26,4.0.9.0,5,whiteindirect,6,45,582,plus2,0,b12.jpg,Judgeindirect,blacksquare2.gif,pic48.bmp,Mask.bmp,0121316,13:25:26,4.0.9.0,5,neutral,6,46,1029,plus1,0,GREY.bmp,Judgeindirect,blacksquare2.gif,pic72.bmp,Mask.bmp,0121316,13:25:26,4.0.9.0,5,neutral,6,47,489,plus1,0,GREY.bmp,Judgeindirect,blacksquare2.gif,pic14.bmp,Mask.bmp,0121316,13:25:26,4.0.9.0,5,neutral,6,48,1120,plus2,0,GREY.bmp,Judgeindirect,blacksquare2.gif,pic29.bmp,Mask.bmp,0121316,13:25:26,4.0.9.0,5,neutral,6,49,1190,minus1,0,GREY.bmp,Judgeindirect,blacksquare2.gif,pic62.bmp,Mask.bmp,0121316,13:25:26,4.0.9.0,5,neutral,6,50,1864,plus1,0,GREY.bmp,Judgeindirect,blacksquare2.gif,pic59.bmp,Mask.bmp,0121316,13:25:26,4.0.9.0,5,whiteindirect,6,51,3000,minus2,0,w01.bmp,Judgeindirect,blacksquare2.gif,pic33.bmp,Mask.bmp,0121316,13:25:26,4.0.9.0,5,neutral,6,52,1831,minus1,0,GREY.bmp,Judgeindirect,blacksquare2.gif,pic69.bmp,Mask.bmp,0121316,13:25:26,4.0.9.0,5,blackindirect,6,53,1069,plus1,0,b04.bmp,Judgeindirect,blacksquare2.gif,pic73.bmp,Mask.bmp,0121316,13:25:26,4.0.9.0,5,neutral,6,54,1408,minus1,0,GREY.bmp,Judgeindirect,blacksquare2.gif,pic16.bmp,Mask.bmp,0121316,13:25:26,4.0.9.0,5,whiteindirect,6,55,1403,minus2,0,w09.bmp,Judgeindirect,blacksquare2.gif,pic61.bmp,Mask.bmp,0121316,13:25:26,4.0.9.0,5,blackindirect,6,56,1085,plus2,0,b12.bmp,Judgeindirect,blacksquare2.gif,pic75.bmp,Mask.bmp,0121316,13:25:26,4.0.9.0,5,neutral,6,57,1973,plus2,0,GREY.bmp,Judgeindirect,blacksquare2.gif,pic27.bmp,Mask.bmp,0121316,13:25:26,4.0.9.0,5,neutral,6,58,978,plus2,0,GREY.bmp,Judgeindirect,blacksquare2.gif,pic40.bmp,Mask.bmp,0121316,13:25:26,4.0.9.0,5,neutral,6,59,460,plus2,0,GREY.bmp,Judgeindirect,blacksquare2.gif,pic3.bmp,Mask.bmp,0121316,13:25:26,4.0.9.0,5,neutral,6,60,1227,minus1,0,GREY.bmp,Judgeindirect,blacksquare2.gif,pic18.bmp,Mask.bmp,0121316,13:25:26,4.0.9.0,5,whiteindirect,6,61,1300,plus1,0,w04.bmp,Judgeindirect,blacksquare2.gif,pic37.bmp,Mask.bmp,0121316,13:25:26,4.0.9.0,5,neutral,6,62,2003,minus1,0,GREY.bmp,Judgeindirect,blacksquare2.gif,pic50.bmp,Mask.bmp,0121316,13:25:26,4.0.9.0,5,blackindirect,6,63,404,minus1,0,b07.bmp,Judgeindirect,blacksquare2.gif,pic66.bmp,Mask.bmp,0121316,13:25:26,4.0.9.0,5,neutral,6,64,1350,plus1,0,GREY.bmp,Judgeindirect,blacksquare2.gif,pic12.bmp,Mask.bmp,0121316,13:25:26,4.0.9.0,5,blackindirect,6,65,1630,minus2,0,b08.bmp,Judgeindirect,blacksquare2.gif,pic43.bmp,Mask.bmp,0121316,13:25:26,4.0.9.0,5,neutral,6,66,1303,plus2,0,GREY.bmp,Judgeindirect,blacksquare2.gif,pic7.bmp,Mask.bmp,0121316,13:25:26,4.0.9.0,5,whiteindirect,6,67,965,minus1,0,w06.bmp,Judgeindirect,blacksquare2.gif,pic8.bmp,Mask.bmp,0121316,13:25:26,4.0.9.0,5,neutral,6,68,1117,plus2,0,GREY.bmp,Judgeindirect,blacksquare2.gif,pic34.bmp,Mask.bmp,0121316,13:25:26,4.0.9.0,5,neutral,6,69,1559,plus2,0,GREY.bmp,Judgeindirect,blacksquare2.gif,pic6.bmp,Mask.bmp,0121316,13:25:26,4.0.9.0,5,blackindirect,6,70,1360,minus1,0,b09.bmp,Judgeindirect,blacksquare2.gif,pic42.bmp,Mask.bmp,0121316,13:25:26,4.0.9.0,5,blackindirect,6,71,1440,plus1,0,b02.bmp,Judgeindirect,blacksquare2.gif,pic45.bmp,Mask.bmp,0121316,13:25:26,4.0.9.0,5,whiteindirect,6,72,940,minus2,0,w05.bmp,Judgeindirect,blacksquare2.gif,pic49.bmp,Mask.bmp,0121316,13:25:26,4.0.9.0,5,sesso,7,1,13355,2,1,0,demo,0,0,0,0121316,13:25:26,4.0.9.0,5,anni,7,1,13355,20,1,0,demo,0,0,0,0121316,13:25:26,4.0.9.0,5,etnia,7,1,13355,Caucasico/Europeo,1,0,demo,0,0,0,0121316,13:32:14,4.0.9.0,6,practice,1,1,6901,57,1,sample.bmp,orient1,blacksquare2.gif,pic76.bmp,Mask.bmp,0121316,13:32:14,4.0.9.0,6,neutral,4,1,27204,minus1,0,GREY.bmp,Judgeindirect,blacksquare2.gif,pic4.bmp,Mask.bmp,0121316,13:32:14,4.0.9.0,6,neutral,4,2,2596,plus2,0,GREY.bmp,Judgeindirect,blacksquare2.gif,pic20.bmp,Mask.bmp,0121316,13:32:14,4.0.9.0,6,neutral,4,3,2481,minus2,0,GREY.bmp,Judgeindirect,blacksquare2.gif,pic24.bmp,Mask.bmp,0121316,13:32:14,4.0.9.0,6,neutral,4,4,1129,minus2,0,GREY.bmp,Judgeindirect,blacksquare2.gif,pic10.bmp,Mask.bmp,0121316,13:32:14,4.0.9.0,6,neutral,4,5,4636,minus1,0,GREY.bmp,Judgeindirect,blacksquare2.gif,pic63.bmp,Mask.bmp,0121316,13:32:14,4.0.9.0,6,blackindirect,4,6,7044,minus1,0,b02.bmp,Judgeindirect,blacksquare2.gif,pic46.bmp,Mask.bmp,0121316,13:32:14,4.0.9.0,6,whiteindirect,4,7,2149,minus2,0,w02.bmp,Judgeindirect,blacksquare2.gif,pic13.bmp,Mask.bmp,0121316,13:32:14,4.0.9.0,6,whiteindirect,4,8,1973,plus1,0,w05.bmp,Judgeindirect,blacksquare2.gif,pic68.bmp,Mask.bmp,0121316,13:32:14,4.0.9.0,6,whiteindirect,4,9,4753,plus1,0,w01.bmp,Judgeindirect,blacksquare2.gif,pic49.bmp,Mask.bmp,0121316,13:32:14,4.0.9.0,6,blackindirect,4,10,1197,plus1,0,b01.bmp,Judgeindirect,blacksquare2.gif,pic6.bmp,Mask.bmp,0121316,13:32:14,4.0.9.0,6,neutral,4,11,3185,minus2,0,GREY.bmp,Judgeindirect,blacksquare2.gif,pic54.bmp,Mask.bmp,0121316,13:32:14,4.0.9.0,6,neutral,4,12,5204,plus1,0,GREY.bmp,Judgeindirect,blacksquare2.gif,pic53.bmp,Mask.bmp,0121316,13:32:14,4.0.9.0,6,neutral,4,13,2570,minus2,0,GREY.bmp,Judgeindirect,blacksquare2.gif,pic69.bmp,Mask.bmp,0121316,13:32:14,4.0.9.0,6,neutral,4,14,4184,minus1,0,GREY.bmp,Judgeindirect,blacksquare2.gif,pic32.bmp,Mask.bmp,0121316,13:32:14,4.0.9.0,6,blackindirect,4,15,2860,plus1,0,b09.bmp,Judgeindirect,blacksquare2.gif,pic66.bmp,Mask.bmp,0121316,13:32:14,4.0.9.0,6,blackindirect,4,16,2901,minus2,0,b06.bmp,Judgeindirect,blacksquare2.gif,pic2.bmp,Mask.bmp,0121316,13:32:14,4.0.9.0,6,neutral,4,17,2151,plus2,0,GREY.bmp,Judgeindirect,blacksquare2.gif,pic39.bmp,Mask.bmp,0121316,13:32:14,4.0.9.0,6,neutral,4,18,2243,minus2,0,GREY.bmp,Judgeindirect,blacksquare2.gif,pic22.bmp,Mask.bmp,0121316,13:32:14,4.0.9.0,6,whiteindirect,4,19,3881,minus2,0,w07.bmp,Judgeindirect,blacksquare2.gif,pic19.bmp,Mask.bmp,0121316,13:32:14,4.0.9.0,6,blackindirect,4,20,1410,plus2,0,b03.bmp,Judgeindirect,blacksquare2.gif,pic17.bmp,Mask.bmp,0121316,13:32:14,4.0.9.0,6,blackindirect,4,21,1653,minus1,0,b04.bmp,Judgeindirect,blacksquare2.gif,pic57.bmp,Mask.bmp,0121316,13:32:14,4.0.9.0,6,neutral,4,22,2067,minus2,0,GREY.bmp,Judgeindirect,blacksquare2.gif,pic21.bmp,Mask.bmp,0121316,13:32:14,4.0.9.0,6,neutral,4,23,5362,minus1,0,GREY.bmp,Judgeindirect,blacksquare2.gif,pic59.bmp,Mask.bmp,0121316,13:32:14,4.0.9.0,6,blackindirect,4,24,3048,minus2,0,b11.bmp,Judgeindirect,blacksquare2.gif,pic48.bmp,Mask.bmp,0121316,13:32:14,4.0.9.0,6,blackindirect,4,25,3828,minus1,0,b12.bmp,Judgeindirect,blacksquare2.gif,pic30.bmp,Mask.bmp,0121316,13:32:14,4.0.9.0,6,neutral,4,26,2792,plus1,0,GREY.bmp,Judgeindirect,blacksquare2.gif,pic47.bmp,Mask.bmp,0121316,13:32:14,4.0.9.0,6,whiteindirect,4,27,5129,plus1,0,b10.jpg,Judgeindirect,blacksquare2.gif,pic64.bmp,Mask.bmp,0121316,13:32:14,4.0.9.0,6,neutral,4,28,1953,minus2,0,GREY.bmp,Judgeindirect,blacksquare2.gif,pic25.bmp,Mask.bmp,0121316,13:32:14,4.0.9.0,6,neutral,4,29,2399,minus2,0,GREY.bmp,Judgeindirect,blacksquare2.gif,pic62.bmp,Mask.bmp,0121316,13:32:14,4.0.9.0,6,blackindirect,4,30,3965,minus1,0,b10.bmp,Judgeindirect,blacksquare2.gif,pic44.bmp,Mask.bmp,0121316,13:32:14,4.0.9.0,6,neutral,4,31,2107,minus2,0,GREY.bmp,Judgeindirect,blacksquare2.gif,pic26.bmp,Mask.bmp,0121316,13:32:14,4.0.9.0,6,blackindirect,4,32,4722,minus1,0,b07.bmp,Judgeindirect,blacksquare2.gif,pic18.bmp,Mask.bmp,0121316,13:32:14,4.0.9.0,6,blackindirect,4,33,1693,minus2,0,b05.bmp,Judgeindirect,blacksquare2.gif,pic70.bmp,Mask.bmp,0121316,13:32:14,4.0.9.0,6,whiteindirect,4,34,752,minus2,0,w04.bmp,Judgeindirect,blacksquare2.gif,pic61.bmp,Mask.bmp,0121316,13:32:14,4.0.9.0,6,neutral,4,35,3179,minus1,0,GREY.bmp,Judgeindirect,blacksquare2.gif,pic34.bmp,Mask.bmp,0121316,13:32:14,4.0.9.0,6,whiteindirect,4,36,1352,plus1,0,w08.bmp,Judgeindirect,blacksquare2.gif,pic71.bmp,Mask.bmp,0121316,13:32:14,4.0.9.0,6,whiteindirect,4,37,1667,plus1,0,w03.bmp,Judgeindirect,blacksquare2.gif,pic56.bmp,Mask.bmp,0121316,13:32:14,4.0.9.0,6,whiteindirect,4,38,1612,minus2,0,w09.bmp,Judgeindirect,blacksquare2.gif,pic23.bmp,Mask.bmp,0121316,13:32:14,4.0.9.0,6,neutral,4,39,2360,plus2,0,GREY.bmp,Judgeindirect,blacksquare2.gif,pic41.bmp,Mask.bmp,0121316,13:32:14,4.0.9.0,6,blackindirect,4,40,1612,minus1,0,b08.bmp,Judgeindirect,blacksquare2.gif,pic73.bmp,Mask.bmp,0121316,13:32:14,4.0.9.0,6,blackindirect,4,41,1954,plus2,0,b08.bmp,Judgeindirect,blacksquare2.gif,pic27.bmp,Mask.bmp,0121316,13:32:14,4.0.9.0,6,whiteindirect,4,42,2182,plus1,0,b12.jpg,Judgeindirect,blacksquare2.gif,pic67.bmp,Mask.bmp,0121316,13:32:14,4.0.9.0,6,whiteindirect,4,43,3120,plus1,0,b11.jpg,Judgeindirect,blacksquare2.gif,pic52.bmp,Mask.bmp,0121316,13:32:14,4.0.9.0,6,neutral,4,44,2519,plus1,0,GREY.bmp,Judgeindirect,blacksquare2.gif,pic7.bmp,Mask.bmp,0121316,13:32:14,4.0.9.0,6,whiteindirect,4,45,1518,plus2,0,w06.bmp,Judgeindirect,blacksquare2.gif,pic28.bmp,Mask.bmp,0121316,13:32:14,4.0.9.0,6,whiteindirect,4,46,1045,plus2,0,b12.jpg,Judgeindirect,blacksquare2.gif,pic14.bmp,Mask.bmp,0121316,13:32:14,4.0.9.0,6,whiteindirect,4,47,2710,plus2,0,w01.bmp,Judgeindirect,blacksquare2.gif,pic55.bmp,Mask.bmp,0121316,13:32:14,4.0.9.0,6,whiteindirect,4,48,3109,plus1,0,w02.bmp,Judgeindirect,blacksquare2.gif,pic16.bmp,Mask.bmp,0121316,13:32:14,4.0.9.0,6,blackindirect,4,49,2671,plus2,0,b02.bmp,Judgeindirect,blacksquare2.gif,pic1.bmp,Mask.bmp,0121316,13:32:14,4.0.9.0,6,whiteindirect,4,50,1848,plus1,0,w04.bmp,Judgeindirect,blacksquare2.gif,pic8.bmp,Mask.bmp,0121316,13:32:14,4.0.9.0,6,whiteindirect,4,51,1379,plus1,0,w06.bmp,Judgeindirect,blacksquare2.gif,pic3.bmp,Mask.bmp,0121316,13:32:14,4.0.9.0,6,blackindirect,4,52,1639,minus2,0,b01.bmp,Judgeindirect,blacksquare2.gif,pic33.bmp,Mask.bmp,0121316,13:32:14,4.0.9.0,6,blackindirect,4,53,3048,plus2,0,b04.bmp,Judgeindirect,blacksquare2.gif,pic36.bmp,Mask.bmp,0121316,13:32:14,4.0.9.0,6,blackindirect,4,54,886,plus2,0,b06.bmp,Judgeindirect,blacksquare2.gif,pic29.bmp,Mask.bmp,0121316,13:32:14,4.0.9.0,6,blackindirect,4,55,1727,plus1,0,b03.bmp,Judgeindirect,blacksquare2.gif,pic74.bmp,Mask.bmp,0121316,13:32:14,4.0.9.0,6,whiteindirect,4,56,2212,plus2,0,w08.bmp,Judgeindirect,blacksquare2.gif,pic42.bmp,Mask.bmp,0121316,13:32:14,4.0.9.0,6,blackindirect,4,57,1454,plus2,0,b05.bmp,Judgeindirect,blacksquare2.gif,pic50.bmp,Mask.bmp,0121316,13:32:14,4.0.9.0,6,neutral,4,58,1426,minus2,0,GREY.bmp,Judgeindirect,blacksquare2.gif,pic43.bmp,Mask.bmp,0121316,13:32:14,4.0.9.0,6,whiteindirect,4,59,3001,minus2,0,b11.jpg,Judgeindirect,blacksquare2.gif,pic60.bmp,Mask.bmp,0121316,13:32:14,4.0.9.0,6,blackindirect,4,60,2393,plus1,0,b07.bmp,Judgeindirect,blacksquare2.gif,pic65.bmp,Mask.bmp,0121316,13:32:14,4.0.9.0,6,neutral,4,61,1151,plus2,0,GREY.bmp,Judgeindirect,blacksquare2.gif,pic15.bmp,Mask.bmp,0121316,13:32:14,4.0.9.0,6,whiteindirect,4,62,6554,plus2,0,w03.bmp,Judgeindirect,blacksquare2.gif,pic31.bmp,Mask.bmp,0121316,13:32:14,4.0.9.0,6,whiteindirect,4,63,2746,plus1,0,w07.bmp,Judgeindirect,blacksquare2.gif,pic51.bmp,Mask.bmp,0121316,13:32:14,4.0.9.0,6,whiteindirect,4,64,1939,minus2,0,w05.bmp,Judgeindirect,blacksquare2.gif,pic72.bmp,Mask.bmp,0121316,13:32:14,4.0.9.0,6,blackindirect,4,65,571,minus2,0,b12.bmp,Judgeindirect,blacksquare2.gif,pic11.bmp,Mask.bmp,0121316,13:32:14,4.0.9.0,6,whiteindirect,4,66,1855,plus2,0,b10.jpg,Judgeindirect,blacksquare2.gif,pic9.bmp,Mask.bmp,0121316,13:32:14,4.0.9.0,6,blackindirect,4,67,1382,plus2,0,b10.bmp,Judgeindirect,blacksquare2.gif,pic58.bmp,Mask.bmp,0121316,13:32:14,4.0.9.0,6,whiteindirect,4,68,2307,minus1,0,w09.bmp,Judgeindirect,blacksquare2.gif,pic5.bmp,Mask.bmp,0121316,13:32:14,4.0.9.0,6,blackindirect,4,69,1440,plus1,0,b11.bmp,Judgeindirect,blacksquare2.gif,pic37.bmp,Mask.bmp,0121316,13:32:14,4.0.9.0,6,neutral,4,70,2330,plus1,0,GREY.bmp,Judgeindirect,blacksquare2.gif,pic12.bmp,Mask.bmp,0121316,13:32:14,4.0.9.0,6,neutral,4,71,4904,minus1,0,GREY.bmp,Judgeindirect,blacksquare2.gif,pic75.bmp,Mask.bmp,0121316,13:32:14,4.0.9.0,6,blackindirect,4,72,1798,plus1,0,b09.bmp,Judgeindirect,blacksquare2.gif,pic45.bmp,Mask.bmp,0121316,13:32:14,4.0.9.0,6,blackdirect,6,1,2395,minus1,0,b01.bmp,Judgedirect,blacksquare2.gif,pic116.bmp,Mask.bmp,0121316,13:32:14,4.0.9.0,6,whitedirect,6,2,855,minus1,0,w05.bmp,Judgedirect,blacksquare2.gif,pic114.bmp,Mask.bmp,0121316,13:32:14,4.0.9.0,6,blackdirect,6,3,2019,plus1,0,b06.bmp,Judgedirect,blacksquare2.gif,pic105.bmp,Mask.bmp,0121316,13:32:14,4.0.9.0,6,whitedirect,6,4,1649,minus2,0,w08.bmp,Judgedirect,blacksquare2.gif,pic101.bmp,Mask.bmp,0121316,13:32:14,4.0.9.0,6,blackdirect,6,5,3340,minus2,0,b12.bmp,Judgedirect,blacksquare2.gif,pic81.bmp,Mask.bmp,0121316,13:32:14,4.0.9.0,6,whitedirect,6,6,712,minus2,0,w03.bmp,Judgedirect,blacksquare2.gif,pic117.bmp,Mask.bmp,0121316,13:32:14,4.0.9.0,6,blackdirect,6,7,2149,plus1,0,b09.bmp,Judgedirect,blacksquare2.gif,pic110.bmp,Mask.bmp,0121316,13:32:14,4.0.9.0,6,whitedirect,6,8,1996,minus2,0,w09.bmp,Judgedirect,blacksquare2.gif,pic82.bmp,Mask.bmp,0121316,13:32:14,4.0.9.0,6,blackdirect,6,9,1025,plus1,0,b03.bmp,Judgedirect,blacksquare2.gif,pic80.bmp,Mask.bmp,0121316,13:32:14,4.0.9.0,6,whitedirect,6,10,2273,minus2,0,b12.jpg,Judgedirect,blacksquare2.gif,pic103.bmp,Mask.bmp,0121316,13:32:14,4.0.9.0,6,blackdirect,6,11,1362,plus1,0,b10.bmp,Judgedirect,blacksquare2.gif,pic100.bmp,Mask.bmp,0121316,13:32:14,4.0.9.0,6,whitedirect,6,12,1082,plus1,0,b10.jpg,Judgedirect,blacksquare2.gif,pic106.bmp,Mask.bmp,0121316,13:32:14,4.0.9.0,6,blackdirect,6,13,1207,plus1,0,b07.bmp,Judgedirect,blacksquare2.gif,pic118.bmp,Mask.bmp,0121316,13:32:14,4.0.9.0,6,whitedirect,6,14,1603,minus2,0,w06.bmp,Judgedirect,blacksquare2.gif,pic113.bmp,Mask.bmp,0121316,13:32:14,4.0.9.0,6,blackdirect,6,15,1599,minus1,0,b02.bmp,Judgedirect,blacksquare2.gif,pic78.bmp,Mask.bmp,0121316,13:32:14,4.0.9.0,6,whitedirect,6,16,1285,minus2,0,w02.bmp,Judgedirect,blacksquare2.gif,pic104.bmp,Mask.bmp,0121316,13:32:14,4.0.9.0,6,blackdirect,6,17,2736,minus1,0,b04.bmp,Judgedirect,blacksquare2.gif,pic112.bmp,Mask.bmp,0121316,13:32:14,4.0.9.0,6,whitedirect,6,18,1261,plus1,0,w07.bmp,Judgedirect,blacksquare2.gif,pic109.bmp,Mask.bmp,0121316,13:32:14,4.0.9.0,6,blackdirect,6,19,2354,minus1,0,b05.bmp,Judgedirect,blacksquare2.gif,pic111.bmp,Mask.bmp,0121316,13:32:14,4.0.9.0,6,whitedirect,6,20,3494,minus1,0,w01.bmp,Judgedirect,blacksquare2.gif,pic79.bmp,Mask.bmp,0121316,13:32:14,4.0.9.0,6,blackdirect,6,21,631,minus1,0,b11.bmp,Judgedirect,blacksquare2.gif,pic107.bmp,Mask.bmp,0121316,13:32:14,4.0.9.0,6,whitedirect,6,22,1100,minus2,0,w04.bmp,Judgedirect,blacksquare2.gif,pic102.bmp,Mask.bmp,0121316,13:32:14,4.0.9.0,6,blackdirect,6,23,1134,minus2,0,b08.bmp,Judgedirect,blacksquare2.gif,pic115.bmp,Mask.bmp,0121316,13:32:14,4.0.9.0,6,whitedirect,6,24,753,minus2,0,b11.jpg,Judgedirect,blacksquare2.gif,pic108.bmp,Mask.bmp,0121316,13:32:14,4.0.9.0,6,sesso,7,1,16433,2,1,0,demo,0,0,0,0121316,13:32:14,4.0.9.0,6,anni,7,1,16433,20,1,0,demo,0,0,0,0121316,13:32:14,4.0.9.0,6,etnia,7,1,16433,Caucasico/Europeo,1,0,demo,0,0,0,0121516,10:16:15,4.0.9.0,7,practice,1,1,13239,57,1,sample.bmp,orient1,blacksquare2.gif,pic76.bmp,Mask.bmp,0121516,10:16:15,4.0.9.0,7,whiteindirect,4,1,25580,plus1,0,w08.bmp,Judgeindirect,blacksquare2.gif,pic19.bmp,Mask.bmp,0121516,10:16:15,4.0.9.0,7,whiteindirect,4,2,3114,plus1,0,b12.jpg,Judgeindirect,blacksquare2.gif,pic37.bmp,Mask.bmp,0121516,10:16:15,4.0.9.0,7,whiteindirect,4,3,3698,minus1,0,w01.bmp,Judgeindirect,blacksquare2.gif,pic52.bmp,Mask.bmp,0121516,10:16:15,4.0.9.0,7,blackindirect,4,4,1633,plus1,0,b11.bmp,Judgeindirect,blacksquare2.gif,pic74.bmp,Mask.bmp,0121516,10:16:15,4.0.9.0,7,neutral,4,5,3323,minus1,0,GREY.bmp,Judgeindirect,blacksquare2.gif,pic51.bmp,Mask.bmp,0121516,10:16:15,4.0.9.0,7,whiteindirect,4,6,1038,plus1,0,b11.jpg,Judgeindirect,blacksquare2.gif,pic15.bmp,Mask.bmp,0121516,10:16:15,4.0.9.0,7,neutral,4,7,3200,minus1,0,GREY.bmp,Judgeindirect,blacksquare2.gif,pic23.bmp,Mask.bmp,0121516,10:16:15,4.0.9.0,7,blackindirect,4,8,1957,plus1,0,b05.bmp,Judgeindirect,blacksquare2.gif,pic38.bmp,Mask.bmp,0121516,10:16:15,4.0.9.0,7,whiteindirect,4,9,1700,plus2,0,w05.bmp,Judgeindirect,blacksquare2.gif,pic32.bmp,Mask.bmp,0121516,10:16:15,4.0.9.0,7,blackindirect,4,10,2540,plus1,0,b04.bmp,Judgeindirect,blacksquare2.gif,pic42.bmp,Mask.bmp,0121516,10:16:15,4.0.9.0,7,whiteindirect,4,11,1260,minus1,0,w07.bmp,Judgeindirect,blacksquare2.gif,pic8.bmp,Mask.bmp,0121516,10:16:15,4.0.9.0,7,blackindirect,4,12,2102,minus1,0,b07.bmp,Judgeindirect,blacksquare2.gif,pic12.bmp,Mask.bmp,0121516,10:16:15,4.0.9.0,7,whiteindirect,4,13,1871,minus1,0,w03.bmp,Judgeindirect,blacksquare2.gif,pic69.bmp,Mask.bmp,0121516,10:16:15,4.0.9.0,7,blackindirect,4,14,1944,minus1,0,b10.bmp,Judgeindirect,blacksquare2.gif,pic31.bmp,Mask.bmp,0121516,10:16:15,4.0.9.0,7,whiteindirect,4,15,1029,plus1,0,w06.bmp,Judgeindirect,blacksquare2.gif,pic55.bmp,Mask.bmp,0121516,10:16:15,4.0.9.0,7,neutral,4,16,3676,minus1,0,GREY.bmp,Judgeindirect,blacksquare2.gif,pic27.bmp,Mask.bmp,0121516,10:16:15,4.0.9.0,7,blackindirect,4,17,1950,plus1,0,b12.bmp,Judgeindirect,blacksquare2.gif,pic49.bmp,Mask.bmp,0121516,10:16:15,4.0.9.0,7,neutral,4,18,2272,minus1,0,GREY.bmp,Judgeindirect,blacksquare2.gif,pic57.bmp,Mask.bmp,0121516,10:16:15,4.0.9.0,7,blackindirect,4,19,1570,plus1,0,b01.bmp,Judgeindirect,blacksquare2.gif,pic53.bmp,Mask.bmp,0121516,10:16:15,4.0.9.0,7,neutral,4,20,3183,plus1,0,GREY.bmp,Judgeindirect,blacksquare2.gif,pic75.bmp,Mask.bmp,0121516,10:16:15,4.0.9.0,7,blackindirect,4,21,3232,minus1,0,b06.bmp,Judgeindirect,blacksquare2.gif,pic59.bmp,Mask.bmp,0121516,10:16:15,4.0.9.0,7,whiteindirect,4,22,2587,plus1,0,w09.bmp,Judgeindirect,blacksquare2.gif,pic6.bmp,Mask.bmp,0121516,10:16:15,4.0.9.0,7,neutral,4,23,1456,plus1,0,GREY.bmp,Judgeindirect,blacksquare2.gif,pic43.bmp,Mask.bmp,0121516,10:16:15,4.0.9.0,7,whiteindirect,4,24,1708,plus1,0,b10.jpg,Judgeindirect,blacksquare2.gif,pic14.bmp,Mask.bmp,0121516,10:16:15,4.0.9.0,7,whiteindirect,4,25,1723,minus2,0,w04.bmp,Judgeindirect,blacksquare2.gif,pic40.bmp,Mask.bmp,0121516,10:16:15,4.0.9.0,7,blackindirect,4,26,2161,minus1,0,b09.bmp,Judgeindirect,blacksquare2.gif,pic48.bmp,Mask.bmp,0121516,10:16:15,4.0.9.0,7,blackindirect,4,27,1191,plus2,0,b02.bmp,Judgeindirect,blacksquare2.gif,pic25.bmp,Mask.bmp,0121516,10:16:15,4.0.9.0,7,blackindirect,4,28,619,plus2,0,b03.bmp,Judgeindirect,blacksquare2.gif,pic61.bmp,Mask.bmp,0121516,10:16:15,4.0.9.0,7,whiteindirect,4,29,2070,plus1,0,w02.bmp,Judgeindirect,blacksquare2.gif,pic3.bmp,Mask.bmp,0121516,10:16:15,4.0.9.0,7,neutral,4,30,1896,minus1,0,GREY.bmp,Judgeindirect,blacksquare2.gif,pic30.bmp,Mask.bmp,0121516,10:16:15,4.0.9.0,7,whiteindirect,4,31,1334,plus1,0,w04.bmp,Judgeindirect,blacksquare2.gif,pic29.bmp,Mask.bmp,0121516,10:16:15,4.0.9.0,7,blackindirect,4,32,1181,minus1,0,b08.bmp,Judgeindirect,blacksquare2.gif,pic67.bmp,Mask.bmp,0121516,10:16:15,4.0.9.0,7,blackindirect,4,33,1472,plus1,0,b04.bmp,Judgeindirect,blacksquare2.gif,pic7.bmp,Mask.bmp,0121516,10:16:15,4.0.9.0,7,neutral,4,34,1651,minus1,0,GREY.bmp,Judgeindirect,blacksquare2.gif,pic28.bmp,Mask.bmp,0121516,10:16:15,4.0.9.0,7,neutral,4,35,1187,minus1,0,GREY.bmp,Judgeindirect,blacksquare2.gif,pic1.bmp,Mask.bmp,0121516,10:16:15,4.0.9.0,7,whiteindirect,4,36,1175,plus1,0,w05.bmp,Judgeindirect,blacksquare2.gif,pic41.bmp,Mask.bmp,0121516,10:16:15,4.0.9.0,7,neutral,4,37,2331,minus1,0,GREY.bmp,Judgeindirect,blacksquare2.gif,pic21.bmp,Mask.bmp,0121516,10:16:15,4.0.9.0,7,whiteindirect,4,38,3110,plus1,0,b11.jpg,Judgeindirect,blacksquare2.gif,pic34.bmp,Mask.bmp,0121516,10:16:15,4.0.9.0,7,whiteindirect,4,39,1803,minus1,0,b12.jpg,Judgeindirect,blacksquare2.gif,pic9.bmp,Mask.bmp,0121516,10:16:15,4.0.9.0,7,neutral,4,40,1287,plus1,0,GREY.bmp,Judgeindirect,blacksquare2.gif,pic18.bmp,Mask.bmp,0121516,10:16:15,4.0.9.0,7,neutral,4,41,1431,minus1,0,GREY.bmp,Judgeindirect,blacksquare2.gif,pic11.bmp,Mask.bmp,0121516,10:16:15,4.0.9.0,7,whiteindirect,4,42,1616,minus1,0,w08.bmp,Judgeindirect,blacksquare2.gif,pic22.bmp,Mask.bmp,0121516,10:16:15,4.0.9.0,7,blackindirect,4,43,1802,minus1,0,b08.bmp,Judgeindirect,blacksquare2.gif,pic73.bmp,Mask.bmp,0121516,10:16:15,4.0.9.0,7,neutral,4,44,2020,plus1,0,GREY.bmp,Judgeindirect,blacksquare2.gif,pic10.bmp,Mask.bmp,0121516,10:16:15,4.0.9.0,7,neutral,4,45,1212,plus2,0,GREY.bmp,Judgeindirect,blacksquare2.gif,pic16.bmp,Mask.bmp,0121516,10:16:15,4.0.9.0,7,neutral,4,46,1519,plus1,0,GREY.bmp,Judgeindirect,blacksquare2.gif,pic39.bmp,Mask.bmp,0121516,10:16:15,4.0.9.0,7,whiteindirect,4,47,1345,minus1,0,w01.bmp,Judgeindirect,blacksquare2.gif,pic72.bmp,Mask.bmp,0121516,10:16:15,4.0.9.0,7,whiteindirect,4,48,1907,plus1,0,w02.bmp,Judgeindirect,blacksquare2.gif,pic44.bmp,Mask.bmp,0121516,10:16:15,4.0.9.0,7,whiteindirect,4,49,1425,minus1,0,b10.jpg,Judgeindirect,blacksquare2.gif,pic50.bmp,Mask.bmp,0121516,10:16:15,4.0.9.0,7,neutral,4,50,1235,plus1,0,GREY.bmp,Judgeindirect,blacksquare2.gif,pic62.bmp,Mask.bmp,0121516,10:16:15,4.0.9.0,7,whiteindirect,4,51,901,plus1,0,w06.bmp,Judgeindirect,blacksquare2.gif,pic36.bmp,Mask.bmp,0121516,10:16:15,4.0.9.0,7,blackindirect,4,52,1947,minus1,0,b01.bmp,Judgeindirect,blacksquare2.gif,pic13.bmp,Mask.bmp,0121516,10:16:15,4.0.9.0,7,blackindirect,4,53,1128,plus1,0,b05.bmp,Judgeindirect,blacksquare2.gif,pic60.bmp,Mask.bmp,0121516,10:16:15,4.0.9.0,7,neutral,4,54,1120,minus1,0,GREY.bmp,Judgeindirect,blacksquare2.gif,pic5.bmp,Mask.bmp,0121516,10:16:15,4.0.9.0,7,blackindirect,4,55,1205,plus2,0,b07.bmp,Judgeindirect,blacksquare2.gif,pic17.bmp,Mask.bmp,0121516,10:16:15,4.0.9.0,7,neutral,4,56,913,plus2,0,GREY.bmp,Judgeindirect,blacksquare2.gif,pic70.bmp,Mask.bmp,0121516,10:16:15,4.0.9.0,7,neutral,4,57,1009,plus2,0,GREY.bmp,Judgeindirect,blacksquare2.gif,pic58.bmp,Mask.bmp,0121516,10:16:15,4.0.9.0,7,neutral,4,58,823,plus2,0,GREY.bmp,Judgeindirect,blacksquare2.gif,pic2.bmp,Mask.bmp,0121516,10:16:15,4.0.9.0,7,blackindirect,4,59,997,plus1,0,b03.bmp,Judgeindirect,blacksquare2.gif,pic65.bmp,Mask.bmp,0121516,10:16:15,4.0.9.0,7,whiteindirect,4,60,1106,minus1,0,w07.bmp,Judgeindirect,blacksquare2.gif,pic63.bmp,Mask.bmp,0121516,10:16:15,4.0.9.0,7,whiteindirect,4,61,783,minus2,0,w03.bmp,Judgeindirect,blacksquare2.gif,pic68.bmp,Mask.bmp,0121516,10:16:15,4.0.9.0,7,blackindirect,4,62,1543,minus1,0,b09.bmp,Judgeindirect,blacksquare2.gif,pic33.bmp,Mask.bmp,0121516,10:16:15,4.0.9.0,7,blackindirect,4,63,3324,plus1,0,b10.bmp,Judgeindirect,blacksquare2.gif,pic47.bmp,Mask.bmp,0121516,10:16:15,4.0.9.0,7,neutral,4,64,1538,plus1,0,GREY.bmp,Judgeindirect,blacksquare2.gif,pic46.bmp,Mask.bmp,0121516,10:16:15,4.0.9.0,7,blackindirect,4,65,1210,minus1,0,b12.bmp,Judgeindirect,blacksquare2.gif,pic64.bmp,Mask.bmp,0121516,10:16:15,4.0.9.0,7,blackindirect,4,66,935,plus1,0,b06.bmp,Judgeindirect,blacksquare2.gif,pic54.bmp,Mask.bmp,0121516,10:16:15,4.0.9.0,7,blackindirect,4,67,769,plus1,0,b02.bmp,Judgeindirect,blacksquare2.gif,pic20.bmp,Mask.bmp,0121516,10:16:15,4.0.9.0,7,blackindirect,4,68,527,plus1,0,b11.bmp,Judgeindirect,blacksquare2.gif,pic71.bmp,Mask.bmp,0121516,10:16:15,4.0.9.0,7,neutral,4,69,837,plus1,0,GREY.bmp,Judgeindirect,blacksquare2.gif,pic66.bmp,Mask.bmp,0121516,10:16:15,4.0.9.0,7,neutral,4,70,1171,plus1,0,GREY.bmp,Judgeindirect,blacksquare2.gif,pic4.bmp,Mask.bmp,0121516,10:16:15,4.0.9.0,7,neutral,4,71,888,plus2,0,GREY.bmp,Judgeindirect,blacksquare2.gif,pic24.bmp,Mask.bmp,0121516,10:16:15,4.0.9.0,7,whiteindirect,4,72,1901,minus1,0,w09.bmp,Judgeindirect,blacksquare2.gif,pic56.bmp,Mask.bmp,0121516,10:16:15,4.0.9.0,7,blackdirect,6,1,3616,plus1,0,b01.bmp,Judgedirect,blacksquare2.gif,pic110.bmp,Mask.bmp,0121516,10:16:15,4.0.9.0,7,whitedirect,6,2,1803,plus1,0,b12.jpg,Judgedirect,blacksquare2.gif,pic102.bmp,Mask.bmp,0121516,10:16:15,4.0.9.0,7,blackdirect,6,3,2273,plus1,0,b07.bmp,Judgedirect,blacksquare2.gif,pic79.bmp,Mask.bmp,0121516,10:16:15,4.0.9.0,7,whitedirect,6,4,1025,plus1,0,w05.bmp,Judgedirect,blacksquare2.gif,pic106.bmp,Mask.bmp,0121516,10:16:15,4.0.9.0,7,blackdirect,6,5,1612,minus1,0,b10.bmp,Judgedirect,blacksquare2.gif,pic114.bmp,Mask.bmp,0121516,10:16:15,4.0.9.0,7,whitedirect,6,6,1532,minus1,0,w01.bmp,Judgedirect,blacksquare2.gif,pic104.bmp,Mask.bmp,0121516,10:16:15,4.0.9.0,7,blackdirect,6,7,1267,plus1,0,b08.bmp,Judgedirect,blacksquare2.gif,pic108.bmp,Mask.bmp,0121516,10:16:15,4.0.9.0,7,whitedirect,6,8,987,minus1,0,b11.jpg,Judgedirect,blacksquare2.gif,pic116.bmp,Mask.bmp,0121516,10:16:15,4.0.9.0,7,blackdirect,6,9,737,minus1,0,b02.bmp,Judgedirect,blacksquare2.gif,pic81.bmp,Mask.bmp,0121516,10:16:15,4.0.9.0,7,whitedirect,6,10,881,plus1,0,w04.bmp,Judgedirect,blacksquare2.gif,pic80.bmp,Mask.bmp,0121516,10:16:15,4.0.9.0,7,blackdirect,6,11,643,plus1,0,b09.bmp,Judgedirect,blacksquare2.gif,pic100.bmp,Mask.bmp,0121516,10:16:15,4.0.9.0,7,whitedirect,6,12,1271,minus1,0,w03.bmp,Judgedirect,blacksquare2.gif,pic103.bmp,Mask.bmp,0121516,10:16:15,4.0.9.0,7,blackdirect,6,13,1178,plus1,0,b03.bmp,Judgedirect,blacksquare2.gif,pic105.bmp,Mask.bmp,0121516,10:16:15,4.0.9.0,7,whitedirect,6,14,820,minus1,0,w07.bmp,Judgedirect,blacksquare2.gif,pic111.bmp,Mask.bmp,0121516,10:16:15,4.0.9.0,7,blackdirect,6,15,618,minus1,0,b05.bmp,Judgedirect,blacksquare2.gif,pic109.bmp,Mask.bmp,0121516,10:16:15,4.0.9.0,7,whitedirect,6,16,431,minus1,0,w09.bmp,Judgedirect,blacksquare2.gif,pic118.bmp,Mask.bmp,0121516,10:16:15,4.0.9.0,7,blackdirect,6,17,1334,plus1,0,b12.bmp,Judgedirect,blacksquare2.gif,pic117.bmp,Mask.bmp,0121516,10:16:15,4.0.9.0,7,whitedirect,6,18,2034,minus2,0,b10.jpg,Judgedirect,blacksquare2.gif,pic107.bmp,Mask.bmp,0121516,10:16:15,4.0.9.0,7,blackdirect,6,19,1120,plus1,0,b06.bmp,Judgedirect,blacksquare2.gif,pic101.bmp,Mask.bmp,0121516,10:16:15,4.0.9.0,7,whitedirect,6,20,754,plus1,0,w06.bmp,Judgedirect,blacksquare2.gif,pic82.bmp,Mask.bmp,0121516,10:16:15,4.0.9.0,7,blackdirect,6,21,884,plus1,0,b04.bmp,Judgedirect,blacksquare2.gif,pic78.bmp,Mask.bmp,0121516,10:16:15,4.0.9.0,7,whitedirect,6,22,913,minus1,0,w08.bmp,Judgedirect,blacksquare2.gif,pic115.bmp,Mask.bmp,0121516,10:16:15,4.0.9.0,7,blackdirect,6,23,586,minus1,0,b11.bmp,Judgedirect,blacksquare2.gif,pic113.bmp,Mask.bmp,0121516,10:16:15,4.0.9.0,7,whitedirect,6,24,408,minus1,0,w02.bmp,Judgedirect,blacksquare2.gif,pic112.bmp,Mask.bmp,0121516,10:16:15,4.0.9.0,7,sesso,7,1,16738,2,1,0,demo,0,0,0,0121516,10:16:15,4.0.9.0,7,anni,7,1,16738,19,1,0,demo,0,0,0,0121516,10:16:15,4.0.9.0,7,etnia,7,1,16738,Caucasico/Europeo,1,0,demo,0,0,0,0121516,10:22:13,4.0.9.0,8,practice,1,1,30192,57,1,sample.bmp,orient1,blacksquare2.gif,pic76.bmp,Mask.bmp,0121516,10:22:13,4.0.9.0,8,whitedirect,4,1,14088,plus1,0,w09.bmp,Judgedirect,blacksquare2.gif,pic112.bmp,Mask.bmp,0121516,10:22:13,4.0.9.0,8,blackdirect,4,2,4738,plus1,0,b04.bmp,Judgedirect,blacksquare2.gif,pic107.bmp,Mask.bmp,0121516,10:22:13,4.0.9.0,8,whitedirect,4,3,3118,plus2,0,w06.bmp,Judgedirect,blacksquare2.gif,pic78.bmp,Mask.bmp,0121516,10:22:13,4.0.9.0,8,blackdirect,4,4,1922,plus2,0,b09.bmp,Judgedirect,blacksquare2.gif,pic118.bmp,Mask.bmp,0121516,10:22:13,4.0.9.0,8,whitedirect,4,5,2036,plus1,0,w03.bmp,Judgedirect,blacksquare2.gif,pic82.bmp,Mask.bmp,0121516,10:22:13,4.0.9.0,8,blackdirect,4,6,1075,plus1,0,b01.bmp,Judgedirect,blacksquare2.gif,pic104.bmp,Mask.bmp,0121516,10:22:13,4.0.9.0,8,whitedirect,4,7,963,plus1,0,w08.bmp,Judgedirect,blacksquare2.gif,pic103.bmp,Mask.bmp,0121516,10:22:13,4.0.9.0,8,blackdirect,4,8,1005,plus1,0,b07.bmp,Judgedirect,blacksquare2.gif,pic102.bmp,Mask.bmp,0121516,10:22:13,4.0.9.0,8,whitedirect,4,9,1039,plus1,0,b12.jpg,Judgedirect,blacksquare2.gif,pic115.bmp,Mask.bmp,0121516,10:22:13,4.0.9.0,8,blackdirect,4,10,970,plus1,0,b05.bmp,Judgedirect,blacksquare2.gif,pic117.bmp,Mask.bmp,0121516,10:22:13,4.0.9.0,8,whitedirect,4,11,3387,plus1,0,w04.bmp,Judgedirect,blacksquare2.gif,pic101.bmp,Mask.bmp,0121516,10:22:13,4.0.9.0,8,blackdirect,4,12,2159,plus1,0,b08.bmp,Judgedirect,blacksquare2.gif,pic111.bmp,Mask.bmp,0121516,10:22:13,4.0.9.0,8,whitedirect,4,13,643,plus1,0,w05.bmp,Judgedirect,blacksquare2.gif,pic80.bmp,Mask.bmp,0121516,10:22:13,4.0.9.0,8,blackdirect,4,14,582,plus1,0,b03.bmp,Judgedirect,blacksquare2.gif,pic81.bmp,Mask.bmp,0121516,10:22:13,4.0.9.0,8,whitedirect,4,15,511,plus1,0,w07.bmp,Judgedirect,blacksquare2.gif,pic113.bmp,Mask.bmp,0121516,10:22:13,4.0.9.0,8,blackdirect,4,16,835,plus1,0,b12.bmp,Judgedirect,blacksquare2.gif,pic100.bmp,Mask.bmp,0121516,10:22:13,4.0.9.0,8,whitedirect,4,17,2323,plus1,0,b10.jpg,Judgedirect,blacksquare2.gif,pic79.bmp,Mask.bmp,0121516,10:22:13,4.0.9.0,8,blackdirect,4,18,2802,minus1,0,b02.bmp,Judgedirect,blacksquare2.gif,pic110.bmp,Mask.bmp,0121516,10:22:13,4.0.9.0,8,whitedirect,4,19,2364,minus1,0,b11.jpg,Judgedirect,blacksquare2.gif,pic116.bmp,Mask.bmp,0121516,10:22:13,4.0.9.0,8,blackdirect,4,20,1555,plus1,0,b11.bmp,Judgedirect,blacksquare2.gif,pic106.bmp,Mask.bmp,0121516,10:22:13,4.0.9.0,8,whitedirect,4,21,2150,minus1,0,w01.bmp,Judgedirect,blacksquare2.gif,pic109.bmp,Mask.bmp,0121516,10:22:13,4.0.9.0,8,blackdirect,4,22,1693,plus1,0,b10.bmp,Judgedirect,blacksquare2.gif,pic105.bmp,Mask.bmp,0121516,10:22:13,4.0.9.0,8,whitedirect,4,23,2315,minus1,0,w02.bmp,Judgedirect,blacksquare2.gif,pic114.bmp,Mask.bmp,0121516,10:22:13,4.0.9.0,8,blackdirect,4,24,1995,plus1,0,b06.bmp,Judgedirect,blacksquare2.gif,pic108.bmp,Mask.bmp,0121516,10:22:13,4.0.9.0,8,whiteindirect,6,1,4664,plus1,0,w09.bmp,Judgeindirect,blacksquare2.gif,pic1.bmp,Mask.bmp,0121516,10:22:13,4.0.9.0,8,whiteindirect,6,2,3657,plus1,0,b11.jpg,Judgeindirect,blacksquare2.gif,pic51.bmp,Mask.bmp,0121516,10:22:13,4.0.9.0,8,whiteindirect,6,3,3448,plus1,0,b10.jpg,Judgeindirect,blacksquare2.gif,pic53.bmp,Mask.bmp,0121516,10:22:13,4.0.9.0,8,whiteindirect,6,4,1477,plus1,0,b12.jpg,Judgeindirect,blacksquare2.gif,pic23.bmp,Mask.bmp,0121516,10:22:13,4.0.9.0,8,neutral,6,5,903,plus1,0,GREY.bmp,Judgeindirect,blacksquare2.gif,pic39.bmp,Mask.bmp,0121516,10:22:13,4.0.9.0,8,whiteindirect,6,6,2574,plus1,0,w06.bmp,Judgeindirect,blacksquare2.gif,pic7.bmp,Mask.bmp,0121516,10:22:13,4.0.9.0,8,whiteindirect,6,7,816,plus1,0,w07.bmp,Judgeindirect,blacksquare2.gif,pic30.bmp,Mask.bmp,0121516,10:22:13,4.0.9.0,8,whiteindirect,6,8,661,plus1,0,w08.bmp,Judgeindirect,blacksquare2.gif,pic42.bmp,Mask.bmp,0121516,10:22:13,4.0.9.0,8,blackindirect,6,9,713,plus1,0,b06.bmp,Judgeindirect,blacksquare2.gif,pic48.bmp,Mask.bmp,0121516,10:22:13,4.0.9.0,8,blackindirect,6,10,1414,minus1,0,b02.bmp,Judgeindirect,blacksquare2.gif,pic52.bmp,Mask.bmp,0121516,10:22:13,4.0.9.0,8,neutral,6,11,537,minus1,0,GREY.bmp,Judgeindirect,blacksquare2.gif,pic21.bmp,Mask.bmp,0121516,10:22:13,4.0.9.0,8,blackindirect,6,12,2537,plus1,0,b03.bmp,Judgeindirect,blacksquare2.gif,pic40.bmp,Mask.bmp,0121516,10:22:13,4.0.9.0,8,neutral,6,13,399,plus1,0,GREY.bmp,Judgeindirect,blacksquare2.gif,pic29.bmp,Mask.bmp,0121516,10:22:13,4.0.9.0,8,neutral,6,14,4737,minus1,0,GREY.bmp,Judgeindirect,blacksquare2.gif,pic25.bmp,Mask.bmp,0121516,10:22:13,4.0.9.0,8,blackindirect,6,15,1148,plus1,0,b09.bmp,Judgeindirect,blacksquare2.gif,pic4.bmp,Mask.bmp,0121516,10:22:13,4.0.9.0,8,neutral,6,16,6488,plus1,0,GREY.bmp,Judgeindirect,blacksquare2.gif,pic34.bmp,Mask.bmp,0121516,10:22:13,4.0.9.0,8,neutral,6,17,1358,plus1,0,GREY.bmp,Judgeindirect,blacksquare2.gif,pic19.bmp,Mask.bmp,0121516,10:22:13,4.0.9.0,8,neutral,6,18,894,plus1,0,GREY.bmp,Judgeindirect,blacksquare2.gif,pic5.bmp,Mask.bmp,0121516,10:22:13,4.0.9.0,8,whiteindirect,6,19,1174,plus1,0,w04.bmp,Judgeindirect,blacksquare2.gif,pic74.bmp,Mask.bmp,0121516,10:22:13,4.0.9.0,8,neutral,6,20,1409,plus1,0,GREY.bmp,Judgeindirect,blacksquare2.gif,pic33.bmp,Mask.bmp,0121516,10:22:13,4.0.9.0,8,neutral,6,21,2574,plus1,0,GREY.bmp,Judgeindirect,blacksquare2.gif,pic32.bmp,Mask.bmp,0121516,10:22:13,4.0.9.0,8,blackindirect,6,22,1160,plus2,0,b08.bmp,Judgeindirect,blacksquare2.gif,pic22.bmp,Mask.bmp,0121516,10:22:13,4.0.9.0,8,neutral,6,23,1533,plus1,0,GREY.bmp,Judgeindirect,blacksquare2.gif,pic8.bmp,Mask.bmp,0121516,10:22:13,4.0.9.0,8,whiteindirect,6,24,1674,plus2,0,w03.bmp,Judgeindirect,blacksquare2.gif,pic49.bmp,Mask.bmp,0121516,10:22:13,4.0.9.0,8,neutral,6,25,369,plus2,0,GREY.bmp,Judgeindirect,blacksquare2.gif,pic56.bmp,Mask.bmp,0121516,10:22:13,4.0.9.0,8,whiteindirect,6,26,402,plus2,0,w02.bmp,Judgeindirect,blacksquare2.gif,pic50.bmp,Mask.bmp,0121516,10:22:13,4.0.9.0,8,whiteindirect,6,27,863,plus1,0,w05.bmp,Judgeindirect,blacksquare2.gif,pic46.bmp,Mask.bmp,0121516,10:22:13,4.0.9.0,8,whiteindirect,6,28,512,plus1,0,w01.bmp,Judgeindirect,blacksquare2.gif,pic66.bmp,Mask.bmp,0121516,10:22:13,4.0.9.0,8,whiteindirect,6,29,523,plus1,0,w03.bmp,Judgeindirect,blacksquare2.gif,pic15.bmp,Mask.bmp,0121516,10:22:13,4.0.9.0,8,neutral,6,30,255,plus1,0,GREY.bmp,Judgeindirect,blacksquare2.gif,pic62.bmp,Mask.bmp,0121516,10:22:13,4.0.9.0,8,whiteindirect,6,31,269,plus1,0,w07.bmp,Judgeindirect,blacksquare2.gif,pic14.bmp,Mask.bmp,0121516,10:22:13,4.0.9.0,8,blackindirect,6,32,348,plus1,0,b12.bmp,Judgeindirect,blacksquare2.gif,pic60.bmp,Mask.bmp,0121516,10:22:13,4.0.9.0,8,blackindirect,6,33,238,plus1,0,b10.bmp,Judgeindirect,blacksquare2.gif,pic58.bmp,Mask.bmp,0121516,10:22:13,4.0.9.0,8,blackindirect,6,34,700,plus1,0,b11.bmp,Judgeindirect,blacksquare2.gif,pic2.bmp,Mask.bmp,0121516,10:22:13,4.0.9.0,8,blackindirect,6,35,759,plus1,0,b01.bmp,Judgeindirect,blacksquare2.gif,pic73.bmp,Mask.bmp,0121516,10:22:13,4.0.9.0,8,blackindirect,6,36,454,plus1,0,b07.bmp,Judgeindirect,blacksquare2.gif,pic28.bmp,Mask.bmp,0121516,10:22:13,4.0.9.0,8,whiteindirect,6,37,440,plus1,0,b12.jpg,Judgeindirect,blacksquare2.gif,pic70.bmp,Mask.bmp,0121516,10:22:13,4.0.9.0,8,whiteindirect,6,38,393,plus1,0,b10.jpg,Judgeindirect,blacksquare2.gif,pic17.bmp,Mask.bmp,0121516,10:22:13,4.0.9.0,8,blackindirect,6,39,477,plus1,0,b05.bmp,Judgeindirect,blacksquare2.gif,pic3.bmp,Mask.bmp,0121516,10:22:13,4.0.9.0,8,blackindirect,6,40,403,plus1,0,b04.bmp,Judgeindirect,blacksquare2.gif,pic16.bmp,Mask.bmp,0121516,10:22:13,4.0.9.0,8,blackindirect,6,41,598,plus1,0,b02.bmp,Judgeindirect,blacksquare2.gif,pic72.bmp,Mask.bmp,0121516,10:22:13,4.0.9.0,8,whiteindirect,6,42,657,plus1,0,w01.bmp,Judgeindirect,blacksquare2.gif,pic44.bmp,Mask.bmp,0121516,10:22:13,4.0.9.0,8,neutral,6,43,615,plus1,0,GREY.bmp,Judgeindirect,blacksquare2.gif,pic36.bmp,Mask.bmp,0121516,10:22:13,4.0.9.0,8,whiteindirect,6,44,2425,plus2,0,w09.bmp,Judgeindirect,blacksquare2.gif,pic26.bmp,Mask.bmp,0121516,10:22:13,4.0.9.0,8,blackindirect,6,45,361,plus2,0,b10.bmp,Judgeindirect,blacksquare2.gif,pic18.bmp,Mask.bmp,0121516,10:22:13,4.0.9.0,8,blackindirect,6,46,1018,plus1,0,b06.bmp,Judgeindirect,blacksquare2.gif,pic71.bmp,Mask.bmp,0121516,10:22:13,4.0.9.0,8,neutral,6,47,960,plus2,0,GREY.bmp,Judgeindirect,blacksquare2.gif,pic11.bmp,Mask.bmp,0121516,10:22:13,4.0.9.0,8,neutral,6,48,908,plus1,0,GREY.bmp,Judgeindirect,blacksquare2.gif,pic59.bmp,Mask.bmp,0121516,10:22:13,4.0.9.0,8,neutral,6,49,379,plus1,0,GREY.bmp,Judgeindirect,blacksquare2.gif,pic68.bmp,Mask.bmp,0121516,10:22:13,4.0.9.0,8,whiteindirect,6,50,211,plus1,0,w02.bmp,Judgeindirect,blacksquare2.gif,pic9.bmp,Mask.bmp,0121516,10:22:13,4.0.9.0,8,neutral,6,51,278,plus1,0,GREY.bmp,Judgeindirect,blacksquare2.gif,pic43.bmp,Mask.bmp,0121516,10:22:13,4.0.9.0,8,blackindirect,6,52,344,plus1,0,b08.bmp,Judgeindirect,blacksquare2.gif,pic38.bmp,Mask.bmp,0121516,10:22:13,4.0.9.0,8,neutral,6,53,358,plus1,0,GREY.bmp,Judgeindirect,blacksquare2.gif,pic61.bmp,Mask.bmp,0121516,10:22:13,4.0.9.0,8,blackindirect,6,54,891,plus1,0,b05.bmp,Judgeindirect,blacksquare2.gif,pic31.bmp,Mask.bmp,0121516,10:22:13,4.0.9.0,8,blackindirect,6,55,419,plus1,0,b01.bmp,Judgeindirect,blacksquare2.gif,pic6.bmp,Mask.bmp,0121516,10:22:13,4.0.9.0,8,whiteindirect,6,56,508,plus1,0,w08.bmp,Judgeindirect,blacksquare2.gif,pic12.bmp,Mask.bmp,0121516,10:22:13,4.0.9.0,8,neutral,6,57,659,plus1,0,GREY.bmp,Judgeindirect,blacksquare2.gif,pic47.bmp,Mask.bmp,0121516,10:22:13,4.0.9.0,8,blackindirect,6,58,1252,plus1,0,b07.bmp,Judgeindirect,blacksquare2.gif,pic10.bmp,Mask.bmp,0121516,10:22:13,4.0.9.0,8,neutral,6,59,900,plus1,0,GREY.bmp,Judgeindirect,blacksquare2.gif,pic64.bmp,Mask.bmp,0121516,10:22:13,4.0.9.0,8,blackindirect,6,60,728,plus1,0,b03.bmp,Judgeindirect,blacksquare2.gif,pic65.bmp,Mask.bmp,0121516,10:22:13,4.0.9.0,8,whiteindirect,6,61,604,plus1,0,w06.bmp,Judgeindirect,blacksquare2.gif,pic75.bmp,Mask.bmp,0121516,10:22:13,4.0.9.0,8,neutral,6,62,1148,minus1,0,GREY.bmp,Judgeindirect,blacksquare2.gif,pic69.bmp,Mask.bmp,0121516,10:22:13,4.0.9.0,8,blackindirect,6,63,1098,plus1,0,b11.bmp,Judgeindirect,blacksquare2.gif,pic41.bmp,Mask.bmp,0121516,10:22:13,4.0.9.0,8,neutral,6,64,1694,plus1,0,GREY.bmp,Judgeindirect,blacksquare2.gif,pic27.bmp,Mask.bmp,0121516,10:22:13,4.0.9.0,8,blackindirect,6,65,300,plus1,0,b09.bmp,Judgeindirect,blacksquare2.gif,pic55.bmp,Mask.bmp,0121516,10:22:13,4.0.9.0,8,blackindirect,6,66,259,plus1,0,b12.bmp,Judgeindirect,blacksquare2.gif,pic24.bmp,Mask.bmp,0121516,10:22:13,4.0.9.0,8,blackindirect,6,67,570,plus1,0,b04.bmp,Judgeindirect,blacksquare2.gif,pic67.bmp,Mask.bmp,0121516,10:22:13,4.0.9.0,8,whiteindirect,6,68,449,plus1,0,w04.bmp,Judgeindirect,blacksquare2.gif,pic57.bmp,Mask.bmp,0121516,10:22:13,4.0.9.0,8,neutral,6,69,886,plus1,0,GREY.bmp,Judgeindirect,blacksquare2.gif,pic54.bmp,Mask.bmp,0121516,10:22:13,4.0.9.0,8,neutral,6,70,805,plus1,0,GREY.bmp,Judgeindirect,blacksquare2.gif,pic63.bmp,Mask.bmp,0121516,10:22:13,4.0.9.0,8,whiteindirect,6,71,382,plus1,0,b11.jpg,Judgeindirect,blacksquare2.gif,pic20.bmp,Mask.bmp,0121516,10:22:13,4.0.9.0,8,whiteindirect,6,72,839,plus1,0,w05.bmp,Judgeindirect,blacksquare2.gif,pic45.bmp,Mask.bmp,0121516,10:22:13,4.0.9.0,8,sesso,7,1,15895,2,1,0,demo,0,0,0,0121516,10:22:13,4.0.9.0,8,anni,7,1,15895,20,1,0,demo,0,0,0,0121516,10:22:13,4.0.9.0,8,etnia,7,1,15895,Caucasico/Europeo,1,0,demo,0,0,0,0121616,12:32:34,4.0.9.0,9,practice,1,1,27354,57,1,sample.bmp,orient1,blacksquare2.gif,pic76.bmp,Mask.bmp,0121616,12:32:34,4.0.9.0,9,whitedirect,4,1,17067,minus1,0,b10.jpg,Judgedirect,blacksquare2.gif,pic118.bmp,Mask.bmp,0121616,12:32:34,4.0.9.0,9,blackdirect,4,2,9367,plus1,0,b08.bmp,Judgedirect,blacksquare2.gif,pic112.bmp,Mask.bmp,0121616,12:32:34,4.0.9.0,9,whitedirect,4,3,2716,minus1,0,w08.bmp,Judgedirect,blacksquare2.gif,pic102.bmp,Mask.bmp,0121616,12:32:34,4.0.9.0,9,blackdirect,4,4,1434,plus1,0,b04.bmp,Judgedirect,blacksquare2.gif,pic113.bmp,Mask.bmp,0121616,12:32:34,4.0.9.0,9,whitedirect,4,5,3181,minus1,0,w07.bmp,Judgedirect,blacksquare2.gif,pic115.bmp,Mask.bmp,0121616,12:32:34,4.0.9.0,9,blackdirect,4,6,1198,plus2,0,b09.bmp,Judgedirect,blacksquare2.gif,pic101.bmp,Mask.bmp,0121616,12:32:34,4.0.9.0,9,whitedirect,4,7,2172,plus1,0,w01.bmp,Judgedirect,blacksquare2.gif,pic116.bmp,Mask.bmp,0121616,12:32:34,4.0.9.0,9,blackdirect,4,8,2039,minus1,0,b06.bmp,Judgedirect,blacksquare2.gif,pic111.bmp,Mask.bmp,0121616,12:32:34,4.0.9.0,9,whitedirect,4,9,1417,minus2,0,w05.bmp,Judgedirect,blacksquare2.gif,pic105.bmp,Mask.bmp,0121616,12:32:34,4.0.9.0,9,blackdirect,4,10,1121,minus1,0,b05.bmp,Judgedirect,blacksquare2.gif,pic82.bmp,Mask.bmp,0121616,12:32:34,4.0.9.0,9,whitedirect,4,11,2591,plus1,0,w02.bmp,Judgedirect,blacksquare2.gif,pic109.bmp,Mask.bmp,0121616,12:32:34,4.0.9.0,9,blackdirect,4,12,2898,plus1,0,b02.bmp,Judgedirect,blacksquare2.gif,pic81.bmp,Mask.bmp,0121616,12:32:34,4.0.9.0,9,whitedirect,4,13,2461,minus2,0,w04.bmp,Judgedirect,blacksquare2.gif,pic117.bmp,Mask.bmp,0121616,12:32:34,4.0.9.0,9,blackdirect,4,14,1682,minus1,0,b11.bmp,Judgedirect,blacksquare2.gif,pic103.bmp,Mask.bmp,0121616,12:32:34,4.0.9.0,9,whitedirect,4,15,1739,minus1,0,w03.bmp,Judgedirect,blacksquare2.gif,pic79.bmp,Mask.bmp,0121616,12:32:34,4.0.9.0,9,blackdirect,4,16,1242,minus1,0,b10.bmp,Judgedirect,blacksquare2.gif,pic106.bmp,Mask.bmp,0121616,12:32:34,4.0.9.0,9,whitedirect,4,17,2176,plus1,0,w06.bmp,Judgedirect,blacksquare2.gif,pic110.bmp,Mask.bmp,0121616,12:32:34,4.0.9.0,9,blackdirect,4,18,2802,plus1,0,b07.bmp,Judgedirect,blacksquare2.gif,pic107.bmp,Mask.bmp,0121616,12:32:34,4.0.9.0,9,whitedirect,4,19,6021,plus1,0,b11.jpg,Judgedirect,blacksquare2.gif,pic104.bmp,Mask.bmp,0121616,12:32:34,4.0.9.0,9,blackdirect,4,20,1371,plus2,0,b12.bmp,Judgedirect,blacksquare2.gif,pic100.bmp,Mask.bmp,0121616,12:32:34,4.0.9.0,9,whitedirect,4,21,1482,plus1,0,w09.bmp,Judgedirect,blacksquare2.gif,pic108.bmp,Mask.bmp,0121616,12:32:34,4.0.9.0,9,blackdirect,4,22,926,plus2,0,b03.bmp,Judgedirect,blacksquare2.gif,pic78.bmp,Mask.bmp,0121616,12:32:34,4.0.9.0,9,whitedirect,4,23,1321,plus1,0,b12.jpg,Judgedirect,blacksquare2.gif,pic80.bmp,Mask.bmp,0121616,12:32:34,4.0.9.0,9,blackdirect,4,24,2358,plus1,0,b01.bmp,Judgedirect,blacksquare2.gif,pic114.bmp,Mask.bmp,0121616,12:32:34,4.0.9.0,9,whiteindirect,6,1,4031,plus1,0,w08.bmp,Judgeindirect,blacksquare2.gif,pic22.bmp,Mask.bmp,0121616,12:32:34,4.0.9.0,9,blackindirect,6,2,1197,plus1,0,b10.bmp,Judgeindirect,blacksquare2.gif,pic41.bmp,Mask.bmp,0121616,12:32:34,4.0.9.0,9,neutral,6,3,3062,minus1,0,GREY.bmp,Judgeindirect,blacksquare2.gif,pic47.bmp,Mask.bmp,0121616,12:32:34,4.0.9.0,9,whiteindirect,6,4,3559,plus1,0,w09.bmp,Judgeindirect,blacksquare2.gif,pic57.bmp,Mask.bmp,0121616,12:32:34,4.0.9.0,9,neutral,6,5,1939,plus1,0,GREY.bmp,Judgeindirect,blacksquare2.gif,pic19.bmp,Mask.bmp,0121616,12:32:34,4.0.9.0,9,neutral,6,6,1774,plus1,0,GREY.bmp,Judgeindirect,blacksquare2.gif,pic44.bmp,Mask.bmp,0121616,12:32:34,4.0.9.0,9,whiteindirect,6,7,1378,plus2,0,w07.bmp,Judgeindirect,blacksquare2.gif,pic32.bmp,Mask.bmp,0121616,12:32:34,4.0.9.0,9,neutral,6,8,1069,plus2,0,GREY.bmp,Judgeindirect,blacksquare2.gif,pic12.bmp,Mask.bmp,0121616,12:32:34,4.0.9.0,9,blackindirect,6,9,1298,plus1,0,b04.bmp,Judgeindirect,blacksquare2.gif,pic31.bmp,Mask.bmp,0121616,12:32:34,4.0.9.0,9,whiteindirect,6,10,1214,minus1,0,w02.bmp,Judgeindirect,blacksquare2.gif,pic43.bmp,Mask.bmp,0121616,12:32:34,4.0.9.0,9,neutral,6,11,1050,minus2,0,GREY.bmp,Judgeindirect,blacksquare2.gif,pic70.bmp,Mask.bmp,0121616,12:32:34,4.0.9.0,9,blackindirect,6,12,2668,minus1,0,b07.bmp,Judgeindirect,blacksquare2.gif,pic39.bmp,Mask.bmp,0121616,12:32:34,4.0.9.0,9,neutral,6,13,1129,plus1,0,GREY.bmp,Judgeindirect,blacksquare2.gif,pic48.bmp,Mask.bmp,0121616,12:32:34,4.0.9.0,9,blackindirect,6,14,1355,plus1,0,b11.bmp,Judgeindirect,blacksquare2.gif,pic5.bmp,Mask.bmp,0121616,12:32:34,4.0.9.0,9,blackindirect,6,15,1995,minus1,0,b08.bmp,Judgeindirect,blacksquare2.gif,pic55.bmp,Mask.bmp,0121616,12:32:34,4.0.9.0,9,neutral,6,16,1902,plus1,0,GREY.bmp,Judgeindirect,blacksquare2.gif,pic3.bmp,Mask.bmp,0121616,12:32:34,4.0.9.0,9,neutral,6,17,2511,minus1,0,GREY.bmp,Judgeindirect,blacksquare2.gif,pic2.bmp,Mask.bmp,0121616,12:32:34,4.0.9.0,9,neutral,6,18,4540,minus1,0,GREY.bmp,Judgeindirect,blacksquare2.gif,pic1.bmp,Mask.bmp,0121616,12:32:34,4.0.9.0,9,blackindirect,6,19,1632,plus1,0,b12.bmp,Judgeindirect,blacksquare2.gif,pic21.bmp,Mask.bmp,0121616,12:32:34,4.0.9.0,9,blackindirect,6,20,1480,plus1,0,b02.bmp,Judgeindirect,blacksquare2.gif,pic45.bmp,Mask.bmp,0121616,12:32:34,4.0.9.0,9,neutral,6,21,1486,plus1,0,GREY.bmp,Judgeindirect,blacksquare2.gif,pic42.bmp,Mask.bmp,0121616,12:32:34,4.0.9.0,9,blackindirect,6,22,1274,plus2,0,b03.bmp,Judgeindirect,blacksquare2.gif,pic29.bmp,Mask.bmp,0121616,12:32:34,4.0.9.0,9,whiteindirect,6,23,2838,minus1,0,w06.bmp,Judgeindirect,blacksquare2.gif,pic75.bmp,Mask.bmp,0121616,12:32:34,4.0.9.0,9,whiteindirect,6,24,1313,plus1,0,b11.jpg,Judgeindirect,blacksquare2.gif,pic20.bmp,Mask.bmp,0121616,12:32:34,4.0.9.0,9,blackindirect,6,25,2556,plus1,0,b05.bmp,Judgeindirect,blacksquare2.gif,pic58.bmp,Mask.bmp,0121616,12:32:34,4.0.9.0,9,neutral,6,26,1621,minus1,0,GREY.bmp,Judgeindirect,blacksquare2.gif,pic4.bmp,Mask.bmp,0121616,12:32:34,4.0.9.0,9,whiteindirect,6,27,1762,plus2,0,b12.jpg,Judgeindirect,blacksquare2.gif,pic68.bmp,Mask.bmp,0121616,12:32:34,4.0.9.0,9,blackindirect,6,28,1067,plus1,0,b09.bmp,Judgeindirect,blacksquare2.gif,pic59.bmp,Mask.bmp,0121616,12:32:34,4.0.9.0,9,neutral,6,29,2003,minus1,0,GREY.bmp,Judgeindirect,blacksquare2.gif,pic73.bmp,Mask.bmp,0121616,12:32:34,4.0.9.0,9,whiteindirect,6,30,802,minus1,0,w03.bmp,Judgeindirect,blacksquare2.gif,pic25.bmp,Mask.bmp,0121616,12:32:34,4.0.9.0,9,whiteindirect,6,31,864,minus1,0,w04.bmp,Judgeindirect,blacksquare2.gif,pic66.bmp,Mask.bmp,0121616,12:32:34,4.0.9.0,9,neutral,6,32,1591,plus2,0,GREY.bmp,Judgeindirect,blacksquare2.gif,pic61.bmp,Mask.bmp,0121616,12:32:34,4.0.9.0,9,neutral,6,33,1866,plus2,0,GREY.bmp,Judgeindirect,blacksquare2.gif,pic10.bmp,Mask.bmp,0121616,12:32:34,4.0.9.0,9,blackindirect,6,34,1720,plus1,0,b01.bmp,Judgeindirect,blacksquare2.gif,pic62.bmp,Mask.bmp,0121616,12:32:34,4.0.9.0,9,whiteindirect,6,35,2581,plus1,0,b10.jpg,Judgeindirect,blacksquare2.gif,pic50.bmp,Mask.bmp,0121616,12:32:34,4.0.9.0,9,blackindirect,6,36,1619,plus1,0,b06.bmp,Judgeindirect,blacksquare2.gif,pic46.bmp,Mask.bmp,0121616,12:32:34,4.0.9.0,9,neutral,6,37,1617,minus2,0,GREY.bmp,Judgeindirect,blacksquare2.gif,pic38.bmp,Mask.bmp,0121616,12:32:34,4.0.9.0,9,blackindirect,6,38,1523,plus1,0,b10.bmp,Judgeindirect,blacksquare2.gif,pic30.bmp,Mask.bmp,0121616,12:32:34,4.0.9.0,9,blackindirect,6,39,1099,plus1,0,b05.bmp,Judgeindirect,blacksquare2.gif,pic16.bmp,Mask.bmp,0121616,12:32:34,4.0.9.0,9,blackindirect,6,40,1304,plus1,0,b02.bmp,Judgeindirect,blacksquare2.gif,pic65.bmp,Mask.bmp,0121616,12:32:34,4.0.9.0,9,whiteindirect,6,41,1935,minus1,0,w01.bmp,Judgeindirect,blacksquare2.gif,pic52.bmp,Mask.bmp,0121616,12:32:34,4.0.9.0,9,whiteindirect,6,42,1364,minus1,0,w05.bmp,Judgeindirect,blacksquare2.gif,pic24.bmp,Mask.bmp,0121616,12:32:34,4.0.9.0,9,blackindirect,6,43,3428,plus1,0,b08.bmp,Judgeindirect,blacksquare2.gif,pic6.bmp,Mask.bmp,0121616,12:32:34,4.0.9.0,9,whiteindirect,6,44,2426,plus1,0,w05.bmp,Judgeindirect,blacksquare2.gif,pic40.bmp,Mask.bmp,0121616,12:32:34,4.0.9.0,9,blackindirect,6,45,611,plus1,0,b11.bmp,Judgeindirect,blacksquare2.gif,pic53.bmp,Mask.bmp,0121616,12:32:34,4.0.9.0,9,neutral,6,46,1138,plus2,0,GREY.bmp,Judgeindirect,blacksquare2.gif,pic9.bmp,Mask.bmp,0121616,12:32:34,4.0.9.0,9,blackindirect,6,47,570,plus2,0,b04.bmp,Judgeindirect,blacksquare2.gif,pic54.bmp,Mask.bmp,0121616,12:32:34,4.0.9.0,9,neutral,6,48,652,plus2,0,GREY.bmp,Judgeindirect,blacksquare2.gif,pic7.bmp,Mask.bmp,0