date,time,build,subject,trialcode,blocknum,trialnum,latency,response,correct,stimulus1,blockcode,stimulusitem2,stimulusitem3,stimulusitem4,stimulusitem5121416,11:20:16,4.0.9.0,100,practice,1,1,2747,57,1,sample.bmp,orient1,blacksquare2.gif,pic76.bmp,Mask.bmp,0121416,11:20:16,4.0.9.0,100,blackdirect,4,1,3601,plus1,0,b09.bmp,Judgedirect,blacksquare2.gif,pic116.bmp,Mask.bmp,0121416,11:20:16,4.0.9.0,100,whitedirect,4,2,4799,plus1,0,b12.jpg,Judgedirect,blacksquare2.gif,pic104.bmp,Mask.bmp,0121416,11:20:16,4.0.9.0,100,blackdirect,4,3,733,plus1,0,b02.bmp,Judgedirect,blacksquare2.gif,pic79.bmp,Mask.bmp,0121416,11:20:16,4.0.9.0,100,whitedirect,4,4,1013,plus1,0,b10.jpg,Judgedirect,blacksquare2.gif,pic80.bmp,Mask.bmp,0121416,11:20:16,4.0.9.0,100,blackdirect,4,5,744,plus1,0,b10.bmp,Judgedirect,blacksquare2.gif,pic113.bmp,Mask.bmp,0121416,11:20:16,4.0.9.0,100,whitedirect,4,6,1124,minus1,0,w06.bmp,Judgedirect,blacksquare2.gif,pic118.bmp,Mask.bmp,0121416,11:20:16,4.0.9.0,100,blackdirect,4,7,861,minus1,0,b07.bmp,Judgedirect,blacksquare2.gif,pic115.bmp,Mask.bmp,0121416,11:20:16,4.0.9.0,100,whitedirect,4,8,709,plus1,0,w04.bmp,Judgedirect,blacksquare2.gif,pic114.bmp,Mask.bmp,0121416,11:20:16,4.0.9.0,100,blackdirect,4,9,905,plus1,0,b05.bmp,Judgedirect,blacksquare2.gif,pic100.bmp,Mask.bmp,0121416,11:20:16,4.0.9.0,100,whitedirect,4,10,1767,minus2,0,w05.bmp,Judgedirect,blacksquare2.gif,pic105.bmp,Mask.bmp,0121416,11:20:16,4.0.9.0,100,blackdirect,4,11,971,minus1,0,b01.bmp,Judgedirect,blacksquare2.gif,pic111.bmp,Mask.bmp,0121416,11:20:16,4.0.9.0,100,whitedirect,4,12,420,minus1,0,b11.jpg,Judgedirect,blacksquare2.gif,pic106.bmp,Mask.bmp,0121416,11:20:16,4.0.9.0,100,blackdirect,4,13,659,plus1,0,b03.bmp,Judgedirect,blacksquare2.gif,pic107.bmp,Mask.bmp,0121416,11:20:16,4.0.9.0,100,whitedirect,4,14,943,minus1,0,w01.bmp,Judgedirect,blacksquare2.gif,pic102.bmp,Mask.bmp,0121416,11:20:16,4.0.9.0,100,blackdirect,4,15,689,minus1,0,b06.bmp,Judgedirect,blacksquare2.gif,pic78.bmp,Mask.bmp,0121416,11:20:16,4.0.9.0,100,whitedirect,4,16,1059,minus1,0,w03.bmp,Judgedirect,blacksquare2.gif,pic117.bmp,Mask.bmp,0121416,11:20:16,4.0.9.0,100,blackdirect,4,17,442,minus1,0,b12.bmp,Judgedirect,blacksquare2.gif,pic103.bmp,Mask.bmp,0121416,11:20:16,4.0.9.0,100,whitedirect,4,18,1952,plus1,0,w07.bmp,Judgedirect,blacksquare2.gif,pic101.bmp,Mask.bmp,0121416,11:20:16,4.0.9.0,100,blackdirect,4,19,788,plus1,0,b04.bmp,Judgedirect,blacksquare2.gif,pic82.bmp,Mask.bmp,0121416,11:20:16,4.0.9.0,100,whitedirect,4,20,464,plus1,0,w09.bmp,Judgedirect,blacksquare2.gif,pic109.bmp,Mask.bmp,0121416,11:20:16,4.0.9.0,100,blackdirect,4,21,935,minus1,0,b11.bmp,Judgedirect,blacksquare2.gif,pic81.bmp,Mask.bmp,0121416,11:20:16,4.0.9.0,100,whitedirect,4,22,243,minus1,0,w02.bmp,Judgedirect,blacksquare2.gif,pic112.bmp,Mask.bmp,0121416,11:20:16,4.0.9.0,100,blackdirect,4,23,390,minus1,0,b08.bmp,Judgedirect,blacksquare2.gif,pic110.bmp,Mask.bmp,0121416,11:20:16,4.0.9.0,100,whitedirect,4,24,651,plus1,0,w08.bmp,Judgedirect,blacksquare2.gif,pic108.bmp,Mask.bmp,0121416,11:20:16,4.0.9.0,100,blackindirect,6,1,1883,plus1,0,b10.bmp,Judgeindirect,blacksquare2.gif,pic11.bmp,Mask.bmp,0121416,11:20:16,4.0.9.0,100,neutral,6,2,1165,plus2,0,GREY.bmp,Judgeindirect,blacksquare2.gif,pic23.bmp,Mask.bmp,0121416,11:20:16,4.0.9.0,100,whiteindirect,6,3,944,minus1,0,b11.jpg,Judgeindirect,blacksquare2.gif,pic63.bmp,Mask.bmp,0121416,11:20:16,4.0.9.0,100,neutral,6,4,576,minus1,0,GREY.bmp,Judgeindirect,blacksquare2.gif,pic52.bmp,Mask.bmp,0121416,11:20:16,4.0.9.0,100,blackindirect,6,5,825,plus1,0,b03.bmp,Judgeindirect,blacksquare2.gif,pic61.bmp,Mask.bmp,0121416,11:20:16,4.0.9.0,100,neutral,6,6,801,minus1,0,GREY.bmp,Judgeindirect,blacksquare2.gif,pic21.bmp,Mask.bmp,0121416,11:20:16,4.0.9.0,100,neutral,6,7,807,minus1,0,GREY.bmp,Judgeindirect,blacksquare2.gif,pic7.bmp,Mask.bmp,0121416,11:20:16,4.0.9.0,100,whiteindirect,6,8,815,plus1,0,b12.jpg,Judgeindirect,blacksquare2.gif,pic4.bmp,Mask.bmp,0121416,11:20:16,4.0.9.0,100,neutral,6,9,502,plus1,0,GREY.bmp,Judgeindirect,blacksquare2.gif,pic39.bmp,Mask.bmp,0121416,11:20:16,4.0.9.0,100,neutral,6,10,1227,plus1,0,GREY.bmp,Judgeindirect,blacksquare2.gif,pic29.bmp,Mask.bmp,0121416,11:20:16,4.0.9.0,100,whiteindirect,6,11,787,minus1,0,w08.bmp,Judgeindirect,blacksquare2.gif,pic37.bmp,Mask.bmp,0121416,11:20:16,4.0.9.0,100,neutral,6,12,641,minus1,0,GREY.bmp,Judgeindirect,blacksquare2.gif,pic69.bmp,Mask.bmp,0121416,11:20:16,4.0.9.0,100,blackindirect,6,13,1054,minus1,0,b02.bmp,Judgeindirect,blacksquare2.gif,pic66.bmp,Mask.bmp,0121416,11:20:16,4.0.9.0,100,whiteindirect,6,14,1398,plus2,0,b10.jpg,Judgeindirect,blacksquare2.gif,pic68.bmp,Mask.bmp,0121416,11:20:16,4.0.9.0,100,whiteindirect,6,15,761,plus2,0,w07.bmp,Judgeindirect,blacksquare2.gif,pic2.bmp,Mask.bmp,0121416,11:20:16,4.0.9.0,100,blackindirect,6,16,940,minus1,0,b07.bmp,Judgeindirect,blacksquare2.gif,pic1.bmp,Mask.bmp,0121416,11:20:16,4.0.9.0,100,neutral,6,17,920,minus1,0,GREY.bmp,Judgeindirect,blacksquare2.gif,pic16.bmp,Mask.bmp,0121416,11:20:16,4.0.9.0,100,neutral,6,18,670,plus1,0,GREY.bmp,Judgeindirect,blacksquare2.gif,pic24.bmp,Mask.bmp,0121416,11:20:16,4.0.9.0,100,blackindirect,6,19,953,minus1,0,b11.bmp,Judgeindirect,blacksquare2.gif,pic71.bmp,Mask.bmp,0121416,11:20:16,4.0.9.0,100,neutral,6,20,1199,minus1,0,GREY.bmp,Judgeindirect,blacksquare2.gif,pic53.bmp,Mask.bmp,0121416,11:20:16,4.0.9.0,100,neutral,6,21,992,plus1,0,GREY.bmp,Judgeindirect,blacksquare2.gif,pic9.bmp,Mask.bmp,0121416,11:20:16,4.0.9.0,100,blackindirect,6,22,641,minus1,0,b08.bmp,Judgeindirect,blacksquare2.gif,pic64.bmp,Mask.bmp,0121416,11:20:16,4.0.9.0,100,blackindirect,6,23,667,plus1,0,b12.bmp,Judgeindirect,blacksquare2.gif,pic38.bmp,Mask.bmp,0121416,11:20:16,4.0.9.0,100,whiteindirect,6,24,675,minus1,0,w02.bmp,Judgeindirect,blacksquare2.gif,pic49.bmp,Mask.bmp,0121416,11:20:16,4.0.9.0,100,whiteindirect,6,25,688,plus1,0,w06.bmp,Judgeindirect,blacksquare2.gif,pic18.bmp,Mask.bmp,0121416,11:20:16,4.0.9.0,100,blackindirect,6,26,1239,minus1,0,b05.bmp,Judgeindirect,blacksquare2.gif,pic15.bmp,Mask.bmp,0121416,11:20:16,4.0.9.0,100,blackindirect,6,27,378,minus1,0,b04.bmp,Judgeindirect,blacksquare2.gif,pic26.bmp,Mask.bmp,0121416,11:20:16,4.0.9.0,100,whiteindirect,6,28,422,minus1,0,w04.bmp,Judgeindirect,blacksquare2.gif,pic30.bmp,Mask.bmp,0121416,11:20:16,4.0.9.0,100,whiteindirect,6,29,328,minus1,0,w01.bmp,Judgeindirect,blacksquare2.gif,pic55.bmp,Mask.bmp,0121416,11:20:16,4.0.9.0,100,neutral,6,30,1380,minus1,0,GREY.bmp,Judgeindirect,blacksquare2.gif,pic62.bmp,Mask.bmp,0121416,11:20:16,4.0.9.0,100,whiteindirect,6,31,694,plus1,0,w05.bmp,Judgeindirect,blacksquare2.gif,pic75.bmp,Mask.bmp,0121416,11:20:16,4.0.9.0,100,whiteindirect,6,32,1264,plus1,0,w03.bmp,Judgeindirect,blacksquare2.gif,pic6.bmp,Mask.bmp,0121416,11:20:16,4.0.9.0,100,whiteindirect,6,33,429,plus1,0,w09.bmp,Judgeindirect,blacksquare2.gif,pic57.bmp,Mask.bmp,0121416,11:20:16,4.0.9.0,100,blackindirect,6,34,338,plus1,0,b09.bmp,Judgeindirect,blacksquare2.gif,pic60.bmp,Mask.bmp,0121416,11:20:16,4.0.9.0,100,whiteindirect,6,35,1272,plus2,0,b10.jpg,Judgeindirect,blacksquare2.gif,pic27.bmp,Mask.bmp,0121416,11:20:16,4.0.9.0,100,blackindirect,6,36,931,plus2,0,b01.bmp,Judgeindirect,blacksquare2.gif,pic72.bmp,Mask.bmp,0121416,11:20:16,4.0.9.0,100,neutral,6,37,845,plus1,0,GREY.bmp,Judgeindirect,blacksquare2.gif,pic13.bmp,Mask.bmp,0121416,11:20:16,4.0.9.0,100,neutral,6,38,478,plus1,0,GREY.bmp,Judgeindirect,blacksquare2.gif,pic65.bmp,Mask.bmp,0121416,11:20:16,4.0.9.0,100,whiteindirect,6,39,755,minus1,0,w02.bmp,Judgeindirect,blacksquare2.gif,pic14.bmp,Mask.bmp,0121416,11:20:16,4.0.9.0,100,neutral,6,40,685,plus1,0,GREY.bmp,Judgeindirect,blacksquare2.gif,pic40.bmp,Mask.bmp,0121416,11:20:16,4.0.9.0,100,blackindirect,6,41,764,minus1,0,b06.bmp,Judgeindirect,blacksquare2.gif,pic5.bmp,Mask.bmp,0121416,11:20:16,4.0.9.0,100,whiteindirect,6,42,1048,plus1,0,w09.bmp,Judgeindirect,blacksquare2.gif,pic8.bmp,Mask.bmp,0121416,11:20:16,4.0.9.0,100,blackindirect,6,43,439,plus1,0,b12.bmp,Judgeindirect,blacksquare2.gif,pic25.bmp,Mask.bmp,0121416,11:20:16,4.0.9.0,100,whiteindirect,6,44,1176,minus1,0,w04.bmp,Judgeindirect,blacksquare2.gif,pic67.bmp,Mask.bmp,0121416,11:20:16,4.0.9.0,100,blackindirect,6,45,543,plus1,0,b08.bmp,Judgeindirect,blacksquare2.gif,pic45.bmp,Mask.bmp,0121416,11:20:16,4.0.9.0,100,neutral,6,46,349,plus1,0,GREY.bmp,Judgeindirect,blacksquare2.gif,pic3.bmp,Mask.bmp,0121416,11:20:16,4.0.9.0,100,blackindirect,6,47,717,minus1,0,b09.bmp,Judgeindirect,blacksquare2.gif,pic42.bmp,Mask.bmp,0121416,11:20:16,4.0.9.0,100,blackindirect,6,48,1085,minus1,0,b10.bmp,Judgeindirect,blacksquare2.gif,pic31.bmp,Mask.bmp,0121416,11:20:16,4.0.9.0,100,blackindirect,6,49,634,plus1,0,b01.bmp,Judgeindirect,blacksquare2.gif,pic36.bmp,Mask.bmp,0121416,11:20:16,4.0.9.0,100,blackindirect,6,50,821,minus1,0,b07.bmp,Judgeindirect,blacksquare2.gif,pic44.bmp,Mask.bmp,0121416,11:20:16,4.0.9.0,100,blackindirect,6,51,485,plus1,0,b02.bmp,Judgeindirect,blacksquare2.gif,pic46.bmp,Mask.bmp,0121416,11:20:16,4.0.9.0,100,neutral,6,52,337,plus1,0,GREY.bmp,Judgeindirect,blacksquare2.gif,pic41.bmp,Mask.bmp,0121416,11:20:16,4.0.9.0,100,neutral,6,53,618,minus1,0,GREY.bmp,Judgeindirect,blacksquare2.gif,pic58.bmp,Mask.bmp,0121416,11:20:16,4.0.9.0,100,blackindirect,6,54,675,plus2,0,b03.bmp,Judgeindirect,blacksquare2.gif,pic22.bmp,Mask.bmp,0121416,11:20:16,4.0.9.0,100,whiteindirect,6,55,481,plus1,0,w01.bmp,Judgeindirect,blacksquare2.gif,pic51.bmp,Mask.bmp,0121416,11:20:16,4.0.9.0,100,neutral,6,56,830,minus1,0,GREY.bmp,Judgeindirect,blacksquare2.gif,pic34.bmp,Mask.bmp,0121416,11:20:16,4.0.9.0,100,blackindirect,6,57,575,plus1,0,b05.bmp,Judgeindirect,blacksquare2.gif,pic50.bmp,Mask.bmp,0121416,11:20:16,4.0.9.0,100,whiteindirect,6,58,891,minus1,0,w03.bmp,Judgeindirect,blacksquare2.gif,pic48.bmp,Mask.bmp,0121416,11:20:16,4.0.9.0,100,whiteindirect,6,59,579,plus1,0,b11.jpg,Judgeindirect,blacksquare2.gif,pic20.bmp,Mask.bmp,0121416,11:20:16,4.0.9.0,100,neutral,6,60,562,minus1,0,GREY.bmp,Judgeindirect,blacksquare2.gif,pic19.bmp,Mask.bmp,0121416,11:20:16,4.0.9.0,100,neutral,6,61,590,plus1,0,GREY.bmp,Judgeindirect,blacksquare2.gif,pic73.bmp,Mask.bmp,0121416,11:20:16,4.0.9.0,100,blackindirect,6,62,622,plus1,0,b11.bmp,Judgeindirect,blacksquare2.gif,pic47.bmp,Mask.bmp,0121416,11:20:16,4.0.9.0,100,neutral,6,63,954,plus1,0,GREY.bmp,Judgeindirect,blacksquare2.gif,pic43.bmp,Mask.bmp,0121416,11:20:16,4.0.9.0,100,neutral,6,64,349,plus1,0,GREY.bmp,Judgeindirect,blacksquare2.gif,pic33.bmp,Mask.bmp,0121416,11:20:16,4.0.9.0,100,whiteindirect,6,65,716,minus1,0,w05.bmp,Judgeindirect,blacksquare2.gif,pic54.bmp,Mask.bmp,0121416,11:20:16,4.0.9.0,100,whiteindirect,6,66,881,plus1,0,w07.bmp,Judgeindirect,blacksquare2.gif,pic59.bmp,Mask.bmp,0121416,11:20:16,4.0.9.0,100,blackindirect,6,67,242,plus1,0,b06.bmp,Judgeindirect,blacksquare2.gif,pic32.bmp,Mask.bmp,0121416,11:20:16,4.0.9.0,100,neutral,6,68,1171,plus2,0,GREY.bmp,Judgeindirect,blacksquare2.gif,pic74.bmp,Mask.bmp,0121416,11:20:16,4.0.9.0,100,blackindirect,6,69,1108,plus2,0,b04.bmp,Judgeindirect,blacksquare2.gif,pic17.bmp,Mask.bmp,0121416,11:20:16,4.0.9.0,100,whiteindirect,6,70,772,plus1,0,w08.bmp,Judgeindirect,blacksquare2.gif,pic56.bmp,Mask.bmp,0121416,11:20:16,4.0.9.0,100,whiteindirect,6,71,462,plus1,0,b12.jpg,Judgeindirect,blacksquare2.gif,pic12.bmp,Mask.bmp,0121416,11:20:16,4.0.9.0,100,whiteindirect,6,72,1538,minus1,0,w06.bmp,Judgeindirect,blacksquare2.gif,pic28.bmp,Mask.bmp,0121416,11:20:16,4.0.9.0,100,sesso,7,1,8041,2,1,0,demo,0,0,0,0121416,11:20:16,4.0.9.0,100,anni,7,1,8041,21,1,0,demo,0,0,0,0121416,11:20:16,4.0.9.0,100,etnia,7,1,8041,Caucasico,1,0,demo,0,0,0,0121416,11:41:29,4.0.9.0,101,practice,1,1,2815,57,1,sample.bmp,orient1,blacksquare2.gif,pic76.bmp,Mask.bmp,0121416,11:41:29,4.0.9.0,101,blackdirect,4,1,10109,plus2,0,b01.bmp,Judgedirect,blacksquare2.gif,pic114.bmp,Mask.bmp,0121416,11:41:29,4.0.9.0,101,whitedirect,4,2,1648,plus2,0,w09.bmp,Judgedirect,blacksquare2.gif,pic117.bmp,Mask.bmp,0121416,11:41:29,4.0.9.0,101,blackdirect,4,3,1202,plus1,0,b08.bmp,Judgedirect,blacksquare2.gif,pic101.bmp,Mask.bmp,0121416,11:41:29,4.0.9.0,101,whitedirect,4,4,2813,minus1,0,w03.bmp,Judgedirect,blacksquare2.gif,pic113.bmp,Mask.bmp,0121416,11:41:29,4.0.9.0,101,blackdirect,4,5,934,plus1,0,b07.bmp,Judgedirect,blacksquare2.gif,pic78.bmp,Mask.bmp,0121416,11:41:29,4.0.9.0,101,whitedirect,4,6,902,plus2,0,w05.bmp,Judgedirect,blacksquare2.gif,pic107.bmp,Mask.bmp,0121416,11:41:29,4.0.9.0,101,blackdirect,4,7,1658,plus1,0,b05.bmp,Judgedirect,blacksquare2.gif,pic116.bmp,Mask.bmp,0121416,11:41:29,4.0.9.0,101,whitedirect,4,8,1379,plus1,0,w01.bmp,Judgedirect,blacksquare2.gif,pic79.bmp,Mask.bmp,0121416,11:41:29,4.0.9.0,101,blackdirect,4,9,811,minus1,0,b03.bmp,Judgedirect,blacksquare2.gif,pic81.bmp,Mask.bmp,0121416,11:41:29,4.0.9.0,101,whitedirect,4,10,1004,plus1,0,w07.bmp,Judgedirect,blacksquare2.gif,pic115.bmp,Mask.bmp,0121416,11:41:29,4.0.9.0,101,blackdirect,4,11,1692,plus1,0,b10.bmp,Judgedirect,blacksquare2.gif,pic109.bmp,Mask.bmp,0121416,11:41:29,4.0.9.0,101,whitedirect,4,12,430,plus1,0,w06.bmp,Judgedirect,blacksquare2.gif,pic102.bmp,Mask.bmp,0121416,11:41:29,4.0.9.0,101,blackdirect,4,13,792,plus2,0,b04.bmp,Judgedirect,blacksquare2.gif,pic80.bmp,Mask.bmp,0121416,11:41:29,4.0.9.0,101,whitedirect,4,14,1655,plus1,0,w04.bmp,Judgedirect,blacksquare2.gif,pic103.bmp,Mask.bmp,0121416,11:41:29,4.0.9.0,101,blackdirect,4,15,1928,minus1,0,b11.bmp,Judgedirect,blacksquare2.gif,pic108.bmp,Mask.bmp,0121416,11:41:29,4.0.9.0,101,whitedirect,4,16,2629,plus1,0,w02.bmp,Judgedirect,blacksquare2.gif,pic118.bmp,Mask.bmp,0121416,11:41:29,4.0.9.0,101,blackdirect,4,17,2161,plus1,0,b02.bmp,Judgedirect,blacksquare2.gif,pic105.bmp,Mask.bmp,0121416,11:41:29,4.0.9.0,101,whitedirect,4,18,957,plus1,0,b11.jpg,Judgedirect,blacksquare2.gif,pic104.bmp,Mask.bmp,0121416,11:41:29,4.0.9.0,101,blackdirect,4,19,1380,minus1,0,b09.bmp,Judgedirect,blacksquare2.gif,pic106.bmp,Mask.bmp,0121416,11:41:29,4.0.9.0,101,whitedirect,4,20,1854,plus1,0,b10.jpg,Judgedirect,blacksquare2.gif,pic82.bmp,Mask.bmp,0121416,11:41:29,4.0.9.0,101,blackdirect,4,21,1201,plus2,0,b12.bmp,Judgedirect,blacksquare2.gif,pic111.bmp,Mask.bmp,0121416,11:41:29,4.0.9.0,101,whitedirect,4,22,1627,minus1,0,b12.jpg,Judgedirect,blacksquare2.gif,pic100.bmp,Mask.bmp,0121416,11:41:29,4.0.9.0,101,blackdirect,4,23,585,minus1,0,b06.bmp,Judgedirect,blacksquare2.gif,pic112.bmp,Mask.bmp,0121416,11:41:29,4.0.9.0,101,whitedirect,4,24,1118,plus1,0,w08.bmp,Judgedirect,blacksquare2.gif,pic110.bmp,Mask.bmp,0121416,11:41:29,4.0.9.0,101,neutral,6,1,2042,plus1,0,GREY.bmp,Judgeindirect,blacksquare2.gif,pic58.bmp,Mask.bmp,0121416,11:41:29,4.0.9.0,101,blackindirect,6,2,1145,plus2,0,b01.bmp,Judgeindirect,blacksquare2.gif,pic68.bmp,Mask.bmp,0121416,11:41:29,4.0.9.0,101,blackindirect,6,3,719,plus2,0,b02.bmp,Judgeindirect,blacksquare2.gif,pic55.bmp,Mask.bmp,0121416,11:41:29,4.0.9.0,101,neutral,6,4,721,plus2,0,GREY.bmp,Judgeindirect,blacksquare2.gif,pic17.bmp,Mask.bmp,0121416,11:41:29,4.0.9.0,101,blackindirect,6,5,1560,plus1,0,b03.bmp,Judgeindirect,blacksquare2.gif,pic56.bmp,Mask.bmp,0121416,11:41:29,4.0.9.0,101,blackindirect,6,6,370,plus1,0,b06.bmp,Judgeindirect,blacksquare2.gif,pic37.bmp,Mask.bmp,0121416,11:41:29,4.0.9.0,101,blackindirect,6,7,323,plus1,0,b05.bmp,Judgeindirect,blacksquare2.gif,pic14.bmp,Mask.bmp,0121416,11:41:29,4.0.9.0,101,whiteindirect,6,8,811,plus2,0,w02.bmp,Judgeindirect,blacksquare2.gif,pic30.bmp,Mask.bmp,0121416,11:41:29,4.0.9.0,101,neutral,6,9,1181,minus2,0,GREY.bmp,Judgeindirect,blacksquare2.gif,pic62.bmp,Mask.bmp,0121416,11:41:29,4.0.9.0,101,whiteindirect,6,10,2223,plus2,0,b10.jpg,Judgeindirect,blacksquare2.gif,pic5.bmp,Mask.bmp,0121416,11:41:29,4.0.9.0,101,neutral,6,11,397,plus2,0,GREY.bmp,Judgeindirect,blacksquare2.gif,pic42.bmp,Mask.bmp,0121416,11:41:29,4.0.9.0,101,whiteindirect,6,12,639,plus1,0,w05.bmp,Judgeindirect,blacksquare2.gif,pic16.bmp,Mask.bmp,0121416,11:41:29,4.0.9.0,101,blackindirect,6,13,824,minus1,0,b07.bmp,Judgeindirect,blacksquare2.gif,pic47.bmp,Mask.bmp,0121416,11:41:29,4.0.9.0,101,whiteindirect,6,14,816,plus1,0,w06.bmp,Judgeindirect,blacksquare2.gif,pic31.bmp,Mask.bmp,0121416,11:41:29,4.0.9.0,101,neutral,6,15,1054,plus2,0,GREY.bmp,Judgeindirect,blacksquare2.gif,pic49.bmp,Mask.bmp,0121416,11:41:29,4.0.9.0,101,neutral,6,16,302,plus2,0,GREY.bmp,Judgeindirect,blacksquare2.gif,pic21.bmp,Mask.bmp,0121416,11:41:29,4.0.9.0,101,whiteindirect,6,17,535,plus1,0,w01.bmp,Judgeindirect,blacksquare2.gif,pic19.bmp,Mask.bmp,0121416,11:41:29,4.0.9.0,101,blackindirect,6,18,391,minus1,0,b09.bmp,Judgeindirect,blacksquare2.gif,pic72.bmp,Mask.bmp,0121416,11:41:29,4.0.9.0,101,blackindirect,6,19,735,plus1,0,b04.bmp,Judgeindirect,blacksquare2.gif,pic24.bmp,Mask.bmp,0121416,11:41:29,4.0.9.0,101,blackindirect,6,20,1290,plus2,0,b12.bmp,Judgeindirect,blacksquare2.gif,pic43.bmp,Mask.bmp,0121416,11:41:29,4.0.9.0,101,blackindirect,6,21,530,plus1,0,b08.bmp,Judgeindirect,blacksquare2.gif,pic75.bmp,Mask.bmp,0121416,11:41:29,4.0.9.0,101,whiteindirect,6,22,557,minus1,0,w08.bmp,Judgeindirect,blacksquare2.gif,pic71.bmp,Mask.bmp,0121416,11:41:29,4.0.9.0,101,whiteindirect,6,23,580,plus1,0,w04.bmp,Judgeindirect,blacksquare2.gif,pic1.bmp,Mask.bmp,0121416,11:41:29,4.0.9.0,101,neutral,6,24,383,plus2,0,GREY.bmp,Judgeindirect,blacksquare2.gif,pic51.bmp,Mask.bmp,0121416,11:41:29,4.0.9.0,101,blackindirect,6,25,1483,minus1,0,b10.bmp,Judgeindirect,blacksquare2.gif,pic22.bmp,Mask.bmp,0121416,11:41:29,4.0.9.0,101,whiteindirect,6,26,502,plus1,0,b11.jpg,Judgeindirect,blacksquare2.gif,pic3.bmp,Mask.bmp,0121416,11:41:29,4.0.9.0,101,blackindirect,6,27,372,plus1,0,b11.bmp,Judgeindirect,blacksquare2.gif,pic38.bmp,Mask.bmp,0121416,11:41:29,4.0.9.0,101,blackindirect,6,28,783,plus2,0,b04.bmp,Judgeindirect,blacksquare2.gif,pic69.bmp,Mask.bmp,0121416,11:41:29,4.0.9.0,101,neutral,6,29,656,plus2,0,GREY.bmp,Judgeindirect,blacksquare2.gif,pic39.bmp,Mask.bmp,0121416,11:41:29,4.0.9.0,101,blackindirect,6,30,1152,minus1,0,b09.bmp,Judgeindirect,blacksquare2.gif,pic59.bmp,Mask.bmp,0121416,11:41:29,4.0.9.0,101,blackindirect,6,31,791,plus1,0,b10.bmp,Judgeindirect,blacksquare2.gif,pic44.bmp,Mask.bmp,0121416,11:41:29,4.0.9.0,101,neutral,6,32,561,minus2,0,GREY.bmp,Judgeindirect,blacksquare2.gif,pic4.bmp,Mask.bmp,0121416,11:41:29,4.0.9.0,101,blackindirect,6,33,1014,plus1,0,b02.bmp,Judgeindirect,blacksquare2.gif,pic23.bmp,Mask.bmp,0121416,11:41:29,4.0.9.0,101,blackindirect,6,34,240,plus1,0,b07.bmp,Judgeindirect,blacksquare2.gif,pic18.bmp,Mask.bmp,0121416,11:41:29,4.0.9.0,101,whiteindirect,6,35,376,plus2,0,w09.bmp,Judgeindirect,blacksquare2.gif,pic32.bmp,Mask.bmp,0121416,11:41:29,4.0.9.0,101,whiteindirect,6,36,757,plus1,0,w03.bmp,Judgeindirect,blacksquare2.gif,pic26.bmp,Mask.bmp,0121416,11:41:29,4.0.9.0,101,neutral,6,37,1348,plus2,0,GREY.bmp,Judgeindirect,blacksquare2.gif,pic27.bmp,Mask.bmp,0121416,11:41:29,4.0.9.0,101,whiteindirect,6,38,1007,plus1,0,b12.jpg,Judgeindirect,blacksquare2.gif,pic63.bmp,Mask.bmp,0121416,11:41:29,4.0.9.0,101,blackindirect,6,39,786,plus2,0,b03.bmp,Judgeindirect,blacksquare2.gif,pic29.bmp,Mask.bmp,0121416,11:41:29,4.0.9.0,101,blackindirect,6,40,801,minus1,0,b12.bmp,Judgeindirect,blacksquare2.gif,pic28.bmp,Mask.bmp,0121416,11:41:29,4.0.9.0,101,whiteindirect,6,41,320,minus2,0,w07.bmp,Judgeindirect,blacksquare2.gif,pic52.bmp,Mask.bmp,0121416,11:41:29,4.0.9.0,101,whiteindirect,6,42,597,plus1,0,w08.bmp,Judgeindirect,blacksquare2.gif,pic7.bmp,Mask.bmp,0121416,11:41:29,4.0.9.0,101,neutral,6,43,670,plus2,0,GREY.bmp,Judgeindirect,blacksquare2.gif,pic36.bmp,Mask.bmp,0121416,11:41:29,4.0.9.0,101,whiteindirect,6,44,148,plus1,0,w05.bmp,Judgeindirect,blacksquare2.gif,pic10.bmp,Mask.bmp,0121416,11:41:29,4.0.9.0,101,whiteindirect,6,45,302,minus1,0,w01.bmp,Judgeindirect,blacksquare2.gif,pic2.bmp,Mask.bmp,0121416,11:41:29,4.0.9.0,101,blackindirect,6,46,852,minus2,0,b05.bmp,Judgeindirect,blacksquare2.gif,pic73.bmp,Mask.bmp,0121416,11:41:29,4.0.9.0,101,neutral,6,47,760,minus1,0,GREY.bmp,Judgeindirect,blacksquare2.gif,pic66.bmp,Mask.bmp,0121416,11:41:29,4.0.9.0,101,neutral,6,48,400,plus1,0,GREY.bmp,Judgeindirect,blacksquare2.gif,pic40.bmp,Mask.bmp,0121416,11:41:29,4.0.9.0,101,whiteindirect,6,49,287,plus2,0,w09.bmp,Judgeindirect,blacksquare2.gif,pic12.bmp,Mask.bmp,0121416,11:41:29,4.0.9.0,101,neutral,6,50,414,plus1,0,GREY.bmp,Judgeindirect,blacksquare2.gif,pic33.bmp,Mask.bmp,0121416,11:41:29,4.0.9.0,101,whiteindirect,6,51,1436,plus2,0,w04.bmp,Judgeindirect,blacksquare2.gif,pic64.bmp,Mask.bmp,0121416,11:41:29,4.0.9.0,101,neutral,6,52,250,plus2,0,GREY.bmp,Judgeindirect,blacksquare2.gif,pic46.bmp,Mask.bmp,0121416,11:41:29,4.0.9.0,101,neutral,6,53,288,plus2,0,GREY.bmp,Judgeindirect,blacksquare2.gif,pic9.bmp,Mask.bmp,0121416,11:41:29,4.0.9.0,101,blackindirect,6,54,282,plus2,0,b11.bmp,Judgeindirect,blacksquare2.gif,pic11.bmp,Mask.bmp,0121416,11:41:29,4.0.9.0,101,neutral,6,55,180,plus2,0,GREY.bmp,Judgeindirect,blacksquare2.gif,pic25.bmp,Mask.bmp,0121416,11:41:29,4.0.9.0,101,neutral,6,56,169,plus2,0,GREY.bmp,Judgeindirect,blacksquare2.gif,pic41.bmp,Mask.bmp,0121416,11:41:29,4.0.9.0,101,neutral,6,57,331,plus1,0,GREY.bmp,Judgeindirect,blacksquare2.gif,pic61.bmp,Mask.bmp,0121416,11:41:29,4.0.9.0,101,whiteindirect,6,58,843,minus1,0,w02.bmp,Judgeindirect,blacksquare2.gif,pic65.bmp,Mask.bmp,0121416,11:41:29,4.0.9.0,101,neutral,6,59,1146,minus2,0,GREY.bmp,Judgeindirect,blacksquare2.gif,pic60.bmp,Mask.bmp,0121416,11:41:29,4.0.9.0,101,whiteindirect,6,60,730,minus2,0,w07.bmp,Judgeindirect,blacksquare2.gif,pic54.bmp,Mask.bmp,0121416,11:41:29,4.0.9.0,101,whiteindirect,6,61,844,minus1,0,w06.bmp,Judgeindirect,blacksquare2.gif,pic67.bmp,Mask.bmp,0121416,11:41:29,4.0.9.0,101,blackindirect,6,62,462,plus1,0,b01.bmp,Judgeindirect,blacksquare2.gif,pic45.bmp,Mask.bmp,0121416,11:41:29,4.0.9.0,101,blackindirect,6,63,310,plus2,0,b08.bmp,Judgeindirect,blacksquare2.gif,pic8.bmp,Mask.bmp,0121416,11:41:29,4.0.9.0,101,neutral,6,64,696,plus1,0,GREY.bmp,Judgeindirect,blacksquare2.gif,pic20.bmp,Mask.bmp,0121416,11:41:29,4.0.9.0,101,whiteindirect,6,65,669,minus1,0,b12.jpg,Judgeindirect,blacksquare2.gif,pic50.bmp,Mask.bmp,0121416,11:41:29,4.0.9.0,101,blackindirect,6,66,1843,plus1,0,b06.bmp,Judgeindirect,blacksquare2.gif,pic13.bmp,Mask.bmp,0121416,11:41:29,4.0.9.0,101,whiteindirect,6,67,380,plus2,0,b11.jpg,Judgeindirect,blacksquare2.gif,pic15.bmp,Mask.bmp,0121416,11:41:29,4.0.9.0,101,neutral,6,68,618,minus1,0,GREY.bmp,Judgeindirect,blacksquare2.gif,pic70.bmp,Mask.bmp,0121416,11:41:29,4.0.9.0,101,neutral,6,69,637,minus2,0,GREY.bmp,Judgeindirect,blacksquare2.gif,pic57.bmp,Mask.bmp,0121416,11:41:29,4.0.9.0,101,whiteindirect,6,70,1385,plus1,0,w03.bmp,Judgeindirect,blacksquare2.gif,pic74.bmp,Mask.bmp,0121416,11:41:29,4.0.9.0,101,whiteindirect,6,71,545,plus2,0,b10.jpg,Judgeindirect,blacksquare2.gif,pic53.bmp,Mask.bmp,0121416,11:41:29,4.0.9.0,101,neutral,6,72,207,plus2,0,GREY.bmp,Judgeindirect,blacksquare2.gif,pic6.bmp,Mask.bmp,0121416,11:41:29,4.0.9.0,101,sesso,7,1,10850,1,1,0,demo,0,0,0,0121416,11:41:29,4.0.9.0,101,anni,7,1,10850,19,1,0,demo,0,0,0,0121416,11:41:29,4.0.9.0,101,etnia,7,1,10850,Altro,1,0,demo,0,0,0,0121416,11:43:14,4.0.9.0,102,practice,1,1,4563,57,1,sample.bmp,orient1,blacksquare2.gif,pic76.bmp,Mask.bmp,0121416,11:43:14,4.0.9.0,102,neutral,4,1,6285,plus1,0,GREY.bmp,Judgeindirect,blacksquare2.gif,pic4.bmp,Mask.bmp,0121416,11:43:14,4.0.9.0,102,neutral,4,2,5796,plus2,0,GREY.bmp,Judgeindirect,blacksquare2.gif,pic10.bmp,Mask.bmp,0121416,11:43:14,4.0.9.0,102,neutral,4,3,5824,minus1,0,GREY.bmp,Judgeindirect,blacksquare2.gif,pic27.bmp,Mask.bmp,0121416,11:43:14,4.0.9.0,102,whiteindirect,4,4,1546,plus1,0,b11.jpg,Judgeindirect,blacksquare2.gif,pic21.bmp,Mask.bmp,0121416,11:43:14,4.0.9.0,102,blackindirect,4,5,3546,plus1,0,b07.bmp,Judgeindirect,blacksquare2.gif,pic65.bmp,Mask.bmp,0121416,11:43:14,4.0.9.0,102,neutral,4,6,1780,plus2,0,GREY.bmp,Judgeindirect,blacksquare2.gif,pic34.bmp,Mask.bmp,0121416,11:43:14,4.0.9.0,102,blackindirect,4,7,2538,plus1,0,b10.bmp,Judgeindirect,blacksquare2.gif,pic71.bmp,Mask.bmp,0121416,11:43:14,4.0.9.0,102,blackindirect,4,8,1084,plus2,0,b09.bmp,Judgeindirect,blacksquare2.gif,pic51.bmp,Mask.bmp,0121416,11:43:14,4.0.9.0,102,blackindirect,4,9,872,plus2,0,b01.bmp,Judgeindirect,blacksquare2.gif,pic28.bmp,Mask.bmp,0121416,11:43:14,4.0.9.0,102,neutral,4,10,3791,plus1,0,GREY.bmp,Judgeindirect,blacksquare2.gif,pic2.bmp,Mask.bmp,0121416,11:43:14,4.0.9.0,102,blackindirect,4,11,2713,plus1,0,b05.bmp,Judgeindirect,blacksquare2.gif,pic31.bmp,Mask.bmp,0121416,11:43:14,4.0.9.0,102,neutral,4,12,1072,plus2,0,GREY.bmp,Judgeindirect,blacksquare2.gif,pic56.bmp,Mask.bmp,0121416,11:43:14,4.0.9.0,102,neutral,4,13,482,plus2,0,GREY.bmp,Judgeindirect,blacksquare2.gif,pic63.bmp,Mask.bmp,0121416,11:43:14,4.0.9.0,102,neutral,4,14,388,plus2,0,GREY.bmp,Judgeindirect,blacksquare2.gif,pic3.bmp,Mask.bmp,0121416,11:43:14,4.0.9.0,102,whiteindirect,4,15,971,plus1,0,w03.bmp,Judgeindirect,blacksquare2.gif,pic74.bmp,Mask.bmp,0121416,11:43:14,4.0.9.0,102,whiteindirect,4,16,907,plus1,0,w09.bmp,Judgeindirect,blacksquare2.gif,pic57.bmp,Mask.bmp,0121416,11:43:14,4.0.9.0,102,whiteindirect,4,17,962,plus2,0,b12.jpg,Judgeindirect,blacksquare2.gif,pic6.bmp,Mask.bmp,0121416,11:43:14,4.0.9.0,102,blackindirect,4,18,1351,minus1,0,b04.bmp,Judgeindirect,blacksquare2.gif,pic64.bmp,Mask.bmp,0121416,11:43:14,4.0.9.0,102,whiteindirect,4,19,841,plus2,0,w05.bmp,Judgeindirect,blacksquare2.gif,pic53.bmp,Mask.bmp,0121416,11:43:14,4.0.9.0,102,blackindirect,4,20,1399,plus2,0,b02.bmp,Judgeindirect,blacksquare2.gif,pic19.bmp,Mask.bmp,0121416,11:43:14,4.0.9.0,102,neutral,4,21,1557,plus1,0,GREY.bmp,Judgeindirect,blacksquare2.gif,pic45.bmp,Mask.bmp,0121416,11:43:14,4.0.9.0,102,neutral,4,22,1159,minus1,0,GREY.bmp,Judgeindirect,blacksquare2.gif,pic72.bmp,Mask.bmp,0121416,11:43:14,4.0.9.0,102,whiteindirect,4,23,1463,plus1,0,w06.bmp,Judgeindirect,blacksquare2.gif,pic11.bmp,Mask.bmp,0121416,11:43:14,4.0.9.0,102,blackindirect,4,24,708,plus1,0,b12.bmp,Judgeindirect,blacksquare2.gif,pic75.bmp,Mask.bmp,0121416,11:43:14,4.0.9.0,102,blackindirect,4,25,1045,plus2,0,b11.bmp,Judgeindirect,blacksquare2.gif,pic43.bmp,Mask.bmp,0121416,11:43:14,4.0.9.0,102,whiteindirect,4,26,769,plus2,0,w02.bmp,Judgeindirect,blacksquare2.gif,pic70.bmp,Mask.bmp,0121416,11:43:14,4.0.9.0,102,whiteindirect,4,27,804,plus2,0,b10.jpg,Judgeindirect,blacksquare2.gif,pic69.bmp,Mask.bmp,0121416,11:43:14,4.0.9.0,102,blackindirect,4,28,844,plus1,0,b06.bmp,Judgeindirect,blacksquare2.gif,pic33.bmp,Mask.bmp,0121416,11:43:14,4.0.9.0,102,whiteindirect,4,29,819,plus2,0,w08.bmp,Judgeindirect,blacksquare2.gif,pic17.bmp,Mask.bmp,0121416,11:43:14,4.0.9.0,102,blackindirect,4,30,884,plus1,0,b03.bmp,Judgeindirect,blacksquare2.gif,pic12.bmp,Mask.bmp,0121416,11:43:14,4.0.9.0,102,neutral,4,31,664,plus1,0,GREY.bmp,Judgeindirect,blacksquare2.gif,pic61.bmp,Mask.bmp,0121416,11:43:14,4.0.9.0,102,neutral,4,32,1083,plus2,0,GREY.bmp,Judgeindirect,blacksquare2.gif,pic54.bmp,Mask.bmp,0121416,11:43:14,4.0.9.0,102,neutral,4,33,247,plus2,0,GREY.bmp,Judgeindirect,blacksquare2.gif,pic52.bmp,Mask.bmp,0121416,11:43:14,4.0.9.0,102,blackindirect,4,34,292,plus2,0,b08.bmp,Judgeindirect,blacksquare2.gif,pic46.bmp,Mask.bmp,0121416,11:43:14,4.0.9.0,102,whiteindirect,4,35,256,plus2,0,w01.bmp,Judgeindirect,blacksquare2.gif,pic30.bmp,Mask.bmp,0121416,11:43:14,4.0.9.0,102,blackindirect,4,36,253,plus2,0,b02.bmp,Judgeindirect,blacksquare2.gif,pic13.bmp,Mask.bmp,0121416,11:43:14,4.0.9.0,102,blackindirect,4,37,146,plus2,0,b11.bmp,Judgeindirect,blacksquare2.gif,pic23.bmp,Mask.bmp,0121416,11:43:14,4.0.9.0,102,blackindirect,4,38,125,plus2,0,b08.bmp,Judgeindirect,blacksquare2.gif,pic9.bmp,Mask.bmp,0121416,11:43:14,4.0.9.0,102,whiteindirect,4,39,68,plus2,0,w07.bmp,Judgeindirect,blacksquare2.gif,pic48.bmp,Mask.bmp,0121416,11:43:14,4.0.9.0,102,whiteindirect,4,40,1236,plus1,0,w04.bmp,Judgeindirect,blacksquare2.gif,pic16.bmp,Mask.bmp,0121416,11:43:14,4.0.9.0,102,blackindirect,4,41,157,plus1,0,b04.bmp,Judgeindirect,blacksquare2.gif,pic60.bmp,Mask.bmp,0121416,11:43:14,4.0.9.0,102,neutral,4,42,919,plus2,0,GREY.bmp,Judgeindirect,blacksquare2.gif,pic25.bmp,Mask.bmp,0121416,11:43:14,4.0.9.0,102,whiteindirect,4,43,52,plus2,0,w01.bmp,Judgeindirect,blacksquare2.gif,pic37.bmp,Mask.bmp,0121416,11:43:14,4.0.9.0,102,neutral,4,44,208,plus2,0,GREY.bmp,Judgeindirect,blacksquare2.gif,pic47.bmp,Mask.bmp,0121416,11:43:14,4.0.9.0,102,neutral,4,45,213,plus2,0,GREY.bmp,Judgeindirect,blacksquare2.gif,pic14.bmp,Mask.bmp,0121416,11:43:14,4.0.9.0,102,whiteindirect,4,46,21,plus2,0,w02.bmp,Judgeindirect,blacksquare2.gif,pic38.bmp,Mask.bmp,0121416,11:43:14,4.0.9.0,102,whiteindirect,4,47,2,plus2,0,w03.bmp,Judgeindirect,blacksquare2.gif,pic59.bmp,Mask.bmp,0121416,11:43:14,4.0.9.0,102,blackindirect,4,48,530,plus1,0,b01.bmp,Judgeindirect,blacksquare2.gif,pic24.bmp,Mask.bmp,0121416,11:43:14,4.0.9.0,102,whiteindirect,4,49,42,plus1,0,w04.bmp,Judgeindirect,blacksquare2.gif,pic68.bmp,Mask.bmp,0121416,11:43:14,4.0.9.0,102,blackindirect,4,50,901,minus1,0,b03.bmp,Judgeindirect,blacksquare2.gif,pic50.bmp,Mask.bmp,0121416,11:43:14,4.0.9.0,102,blackindirect,4,51,611,plus2,0,b10.bmp,Judgeindirect,blacksquare2.gif,pic26.bmp,Mask.bmp,0121416,11:43:14,4.0.9.0,102,neutral,4,52,157,plus2,0,GREY.bmp,Judgeindirect,blacksquare2.gif,pic5.bmp,Mask.bmp,0121416,11:43:14,4.0.9.0,102,whiteindirect,4,53,347,plus2,0,b11.jpg,Judgeindirect,blacksquare2.gif,pic20.bmp,Mask.bmp,0121416,11:43:14,4.0.9.0,102,neutral,4,54,510,plus1,0,GREY.bmp,Judgeindirect,blacksquare2.gif,pic58.bmp,Mask.bmp,0121416,11:43:14,4.0.9.0,102,whiteindirect,4,55,642,plus2,0,w06.bmp,Judgeindirect,blacksquare2.gif,pic1.bmp,Mask.bmp,0121416,11:43:14,4.0.9.0,102,whiteindirect,4,56,672,plus1,0,w07.bmp,Judgeindirect,blacksquare2.gif,pic15.bmp,Mask.bmp,0121416,11:43:14,4.0.9.0,102,blackindirect,4,57,502,plus2,0,b06.bmp,Judgeindirect,blacksquare2.gif,pic8.bmp,Mask.bmp,0121416,11:43:14,4.0.9.0,102,blackindirect,4,58,2568,plus1,0,b05.bmp,Judgeindirect,blacksquare2.gif,pic7.bmp,Mask.bmp,0121416,11:43:14,4.0.9.0,102,blackindirect,4,59,893,plus2,0,b07.bmp,Judgeindirect,blacksquare2.gif,pic41.bmp,Mask.bmp,0121416,11:43:14,4.0.9.0,102,whiteindirect,4,60,476,plus1,0,w05.bmp,Judgeindirect,blacksquare2.gif,pic73.bmp,Mask.bmp,0121416,11:43:14,4.0.9.0,102,whiteindirect,4,61,609,minus1,0,w09.bmp,Judgeindirect,blacksquare2.gif,pic18.bmp,Mask.bmp,0121416,11:43:14,4.0.9.0,102,whiteindirect,4,62,475,plus1,0,w08.bmp,Judgeindirect,blacksquare2.gif,pic44.bmp,Mask.bmp,0121416,11:43:14,4.0.9.0,102,neutral,4,63,369,plus2,0,GREY.bmp,Judgeindirect,blacksquare2.gif,pic42.bmp,Mask.bmp,0121416,11:43:14,4.0.9.0,102,neutral,4,64,219,plus2,0,GREY.bmp,Judgeindirect,blacksquare2.gif,pic29.bmp,Mask.bmp,0121416,11:43:14,4.0.9.0,102,neutral,4,65,186,plus2,0,GREY.bmp,Judgeindirect,blacksquare2.gif,pic67.bmp,Mask.bmp,0121416,11:43:14,4.0.9.0,102,neutral,4,66,219,plus2,0,GREY.bmp,Judgeindirect,blacksquare2.gif,pic62.bmp,Mask.bmp,0121416,11:43:14,4.0.9.0,102,neutral,4,67,717,plus1,0,GREY.bmp,Judgeindirect,blacksquare2.gif,pic66.bmp,Mask.bmp,0121416,11:43:14,4.0.9.0,102,neutral,4,68,61,plus1,0,GREY.bmp,Judgeindirect,blacksquare2.gif,pic40.bmp,Mask.bmp,0121416,11:43:14,4.0.9.0,102,whiteindirect,4,69,49,plus1,0,b12.jpg,Judgeindirect,blacksquare2.gif,pic36.bmp,Mask.bmp,0121416,11:43:14,4.0.9.0,102,blackindirect,4,70,164,plus1,0,b12.bmp,Judgeindirect,blacksquare2.gif,pic39.bmp,Mask.bmp,0121416,11:43:14,4.0.9.0,102,whiteindirect,4,71,292,plus1,0,b10.jpg,Judgeindirect,blacksquare2.gif,pic55.bmp,Mask.bmp,0121416,11:43:14,4.0.9.0,102,blackindirect,4,72,6,plus1,0,b09.bmp,Judgeindirect,blacksquare2.gif,pic32.bmp,Mask.bmp,0121416,11:43:14,4.0.9.0,102,blackdirect,6,1,3367,plus1,0,b03.bmp,Judgedirect,blacksquare2.gif,pic115.bmp,Mask.bmp,0121416,11:43:14,4.0.9.0,102,whitedirect,6,2,3638,plus1,0,w02.bmp,Judgedirect,blacksquare2.gif,pic80.bmp,Mask.bmp,0121416,11:43:14,4.0.9.0,102,blackdirect,6,3,1397,plus2,0,b07.bmp,Judgedirect,blacksquare2.gif,pic106.bmp,Mask.bmp,0121416,11:43:14,4.0.9.0,102,whitedirect,6,4,1519,plus2,0,w08.bmp,Judgedirect,blacksquare2.gif,pic101.bmp,Mask.bmp,0121416,11:43:14,4.0.9.0,102,blackdirect,6,5,946,plus1,0,b05.bmp,Judgedirect,blacksquare2.gif,pic109.bmp,Mask.bmp,0121416,11:43:14,4.0.9.0,102,whitedirect,6,6,636,plus1,0,b10.jpg,Judgedirect,blacksquare2.gif,pic105.bmp,Mask.bmp,0121416,11:43:14,4.0.9.0,102,blackdirect,6,7,945,plus2,0,b04.bmp,Judgedirect,blacksquare2.gif,pic112.bmp,Mask.bmp,0121416,11:43:14,4.0.9.0,102,whitedirect,6,8,457,plus2,0,w06.bmp,Judgedirect,blacksquare2.gif,pic116.bmp,Mask.bmp,0121416,11:43:14,4.0.9.0,102,blackdirect,6,9,1315,plus1,0,b10.bmp,Judgedirect,blacksquare2.gif,pic78.bmp,Mask.bmp,0121416,11:43:14,4.0.9.0,102,whitedirect,6,10,803,plus2,0,w05.bmp,Judgedirect,blacksquare2.gif,pic117.bmp,Mask.bmp,0121416,11:43:14,4.0.9.0,102,blackdirect,6,11,1623,plus1,0,b11.bmp,Judgedirect,blacksquare2.gif,pic81.bmp,Mask.bmp,0121416,11:43:14,4.0.9.0,102,whitedirect,6,12,1075,plus1,0,w04.bmp,Judgedirect,blacksquare2.gif,pic110.bmp,Mask.bmp,0121416,11:43:14,4.0.9.0,102,blackdirect,6,13,900,plus2,0,b08.bmp,Judgedirect,blacksquare2.gif,pic100.bmp,Mask.bmp,0121416,11:43:14,4.0.9.0,102,whitedirect,6,14,1443,plus2,0,w09.bmp,Judgedirect,blacksquare2.gif,pic103.bmp,Mask.bmp,0121416,11:43:14,4.0.9.0,102,blackdirect,6,15,902,plus1,0,b02.bmp,Judgedirect,blacksquare2.gif,pic108.bmp,Mask.bmp,0121416,11:43:14,4.0.9.0,102,whitedirect,6,16,1289,plus2,0,w07.bmp,Judgedirect,blacksquare2.gif,pic111.bmp,Mask.bmp,0121416,11:43:14,4.0.9.0,102,blackdirect,6,17,1667,plus2,0,b01.bmp,Judgedirect,blacksquare2.gif,pic82.bmp,Mask.bmp,0121416,11:43:14,4.0.9.0,102,whitedirect,6,18,996,minus1,0,b11.jpg,Judgedirect,blacksquare2.gif,pic104.bmp,Mask.bmp,0121416,11:43:14,4.0.9.0,102,blackdirect,6,19,1893,minus2,0,b06.bmp,Judgedirect,blacksquare2.gif,pic107.bmp,Mask.bmp,0121416,11:43:14,4.0.9.0,102,whitedirect,6,20,1629,minus2,0,w03.bmp,Judgedirect,blacksquare2.gif,pic79.bmp,Mask.bmp,0121416,11:43:14,4.0.9.0,102,blackdirect,6,21,1976,plus1,0,b09.bmp,Judgedirect,blacksquare2.gif,pic114.bmp,Mask.bmp,0121416,11:43:14,4.0.9.0,102,whitedirect,6,22,1265,plus2,0,w01.bmp,Judgedirect,blacksquare2.gif,pic102.bmp,Mask.bmp,0121416,11:43:14,4.0.9.0,102,blackdirect,6,23,1047,minus1,0,b12.bmp,Judgedirect,blacksquare2.gif,pic113.bmp,Mask.bmp,0121416,11:43:14,4.0.9.0,102,whitedirect,6,24,697,minus1,0,b12.jpg,Judgedirect,blacksquare2.gif,pic118.bmp,Mask.bmp,0121416,11:43:14,4.0.9.0,102,sesso,7,1,33840,2,1,0,demo,0,0,0,0121416,11:43:14,4.0.9.0,102,anni,7,1,33840,19,1,0,demo,0,0,0,0121416,11:43:14,4.0.9.0,102,etnia,7,1,33840,Altro,1,0,demo,0,0,0,0121416,12:27:20,4.0.9.0,103,practice,1,1,3175,57,1,sample.bmp,orient1,blacksquare2.gif,pic76.bmp,Mask.bmp,0121416,12:27:20,4.0.9.0,103,blackindirect,4,1,8236,plus1,0,b09.bmp,Judgeindirect,blacksquare2.gif,pic58.bmp,Mask.bmp,0121416,12:27:20,4.0.9.0,103,blackindirect,4,2,11999,plus1,0,b01.bmp,Judgeindirect,blacksquare2.gif,pic67.bmp,Mask.bmp,0121416,12:27:20,4.0.9.0,103,neutral,4,3,1301,minus1,0,GREY.bmp,Judgeindirect,blacksquare2.gif,pic40.bmp,Mask.bmp,0121416,12:27:20,4.0.9.0,103,neutral,4,4,2258,plus2,0,GREY.bmp,Judgeindirect,blacksquare2.gif,pic50.bmp,Mask.bmp,0121416,12:27:20,4.0.9.0,103,whiteindirect,4,5,3187,plus2,0,b11.jpg,Judgeindirect,blacksquare2.gif,pic49.bmp,Mask.bmp,0121416,12:27:20,4.0.9.0,103,neutral,4,6,3126,plus1,0,GREY.bmp,Judgeindirect,blacksquare2.gif,pic36.bmp,Mask.bmp,0121416,12:27:20,4.0.9.0,103,whiteindirect,4,7,4171,minus1,0,w03.bmp,Judgeindirect,blacksquare2.gif,pic8.bmp,Mask.bmp,0121416,12:27:20,4.0.9.0,103,neutral,4,8,1864,minus1,0,GREY.bmp,Judgeindirect,blacksquare2.gif,pic66.bmp,Mask.bmp,0121416,12:27:20,4.0.9.0,103,blackindirect,4,9,1520,plus1,0,b11.bmp,Judgeindirect,blacksquare2.gif,pic24.bmp,Mask.bmp,0121416,12:27:20,4.0.9.0,103,neutral,4,10,2789,plus1,0,GREY.bmp,Judgeindirect,blacksquare2.gif,pic25.bmp,Mask.bmp,0121416,12:27:20,4.0.9.0,103,neutral,4,11,3528,plus1,0,GREY.bmp,Judgeindirect,blacksquare2.gif,pic23.bmp,Mask.bmp,0121416,12:27:20,4.0.9.0,103,blackindirect,4,12,1430,minus1,0,b05.bmp,Judgeindirect,blacksquare2.gif,pic18.bmp,Mask.bmp,0121416,12:27:20,4.0.9.0,103,blackindirect,4,13,2383,minus1,0,b03.bmp,Judgeindirect,blacksquare2.gif,pic70.bmp,Mask.bmp,0121416,12:27:20,4.0.9.0,103,blackindirect,4,14,1298,plus1,0,b06.bmp,Judgeindirect,blacksquare2.gif,pic21.bmp,Mask.bmp,0121416,12:27:20,4.0.9.0,103,blackindirect,4,15,921,plus1,0,b04.bmp,Judgeindirect,blacksquare2.gif,pic32.bmp,Mask.bmp,0121416,12:27:20,4.0.9.0,103,neutral,4,16,2502,plus1,0,GREY.bmp,Judgeindirect,blacksquare2.gif,pic63.bmp,Mask.bmp,0121416,12:27:20,4.0.9.0,103,blackindirect,4,17,2045,plus1,0,b07.bmp,Judgeindirect,blacksquare2.gif,pic44.bmp,Mask.bmp,0121416,12:27:20,4.0.9.0,103,neutral,4,18,1861,plus1,0,GREY.bmp,Judgeindirect,blacksquare2.gif,pic54.bmp,Mask.bmp,0121416,12:27:20,4.0.9.0,103,whiteindirect,4,19,1725,minus1,0,w08.bmp,Judgeindirect,blacksquare2.gif,pic65.bmp,Mask.bmp,0121416,12:27:20,4.0.9.0,103,whiteindirect,4,20,2234,minus1,0,b10.jpg,Judgeindirect,blacksquare2.gif,pic68.bmp,Mask.bmp,0121416,12:27:20,4.0.9.0,103,whiteindirect,4,21,2947,minus1,0,w09.bmp,Judgeindirect,blacksquare2.gif,pic4.bmp,Mask.bmp,0121416,12:27:20,4.0.9.0,103,whiteindirect,4,22,1728,minus1,0,w06.bmp,Judgeindirect,blacksquare2.gif,pic60.bmp,Mask.bmp,0121416,12:27:20,4.0.9.0,103,blackindirect,4,23,1886,plus1,0,b10.bmp,Judgeindirect,blacksquare2.gif,pic17.bmp,Mask.bmp,0121416,12:27:20,4.0.9.0,103,whiteindirect,4,24,4252,minus1,0,w01.bmp,Judgeindirect,blacksquare2.gif,pic31.bmp,Mask.bmp,0121416,12:27:20,4.0.9.0,103,neutral,4,25,773,minus1,0,GREY.bmp,Judgeindirect,blacksquare2.gif,pic52.bmp,Mask.bmp,0121416,12:27:20,4.0.9.0,103,neutral,4,26,2711,plus1,0,GREY.bmp,Judgeindirect,blacksquare2.gif,pic71.bmp,Mask.bmp,0121416,12:27:20,4.0.9.0,103,blackindirect,4,27,2151,plus1,0,b12.bmp,Judgeindirect,blacksquare2.gif,pic73.bmp,Mask.bmp,0121416,12:27:20,4.0.9.0,103,whiteindirect,4,28,1248,minus1,0,w05.bmp,Judgeindirect,blacksquare2.gif,pic43.bmp,Mask.bmp,0121416,12:27:20,4.0.9.0,103,blackindirect,4,29,1234,minus1,0,b08.bmp,Judgeindirect,blacksquare2.gif,pic48.bmp,Mask.bmp,0121416,12:27:20,4.0.9.0,103,neutral,4,30,3130,minus2,0,GREY.bmp,Judgeindirect,blacksquare2.gif,pic56.bmp,Mask.bmp,0121416,12:27:20,4.0.9.0,103,whiteindirect,4,31,1496,plus1,0,w07.bmp,Judgeindirect,blacksquare2.gif,pic59.bmp,Mask.bmp,0121416,12:27:20,4.0.9.0,103,blackindirect,4,32,1823,plus1,0,b02.bmp,Judgeindirect,blacksquare2.gif,pic62.bmp,Mask.bmp,0121416,12:27:20,4.0.9.0,103,blackindirect,4,33,1480,minus1,0,b02.bmp,Judgeindirect,blacksquare2.gif,pic64.bmp,Mask.bmp,0121416,12:27:20,4.0.9.0,103,whiteindirect,4,34,4207,plus1,0,w02.bmp,Judgeindirect,blacksquare2.gif,pic57.bmp,Mask.bmp,0121416,12:27:20,4.0.9.0,103,whiteindirect,4,35,1490,minus1,0,b12.jpg,Judgeindirect,blacksquare2.gif,pic55.bmp,Mask.bmp,0121416,12:27:20,4.0.9.0,103,whiteindirect,4,36,961,minus1,0,w04.bmp,Judgeindirect,blacksquare2.gif,pic10.bmp,Mask.bmp,0121416,12:27:20,4.0.9.0,103,blackindirect,4,37,2133,minus1,0,b05.bmp,Judgeindirect,blacksquare2.gif,pic33.bmp,Mask.bmp,0121416,12:27:20,4.0.9.0,103,blackindirect,4,38,2650,plus1,0,b09.bmp,Judgeindirect,blacksquare2.gif,pic16.bmp,Mask.bmp,0121416,12:27:20,4.0.9.0,103,neutral,4,39,3018,plus1,0,GREY.bmp,Judgeindirect,blacksquare2.gif,pic69.bmp,Mask.bmp,0121416,12:27:20,4.0.9.0,103,whiteindirect,4,40,1547,minus1,0,w09.bmp,Judgeindirect,blacksquare2.gif,pic7.bmp,Mask.bmp,0121416,12:27:20,4.0.9.0,103,neutral,4,41,2168,plus1,0,GREY.bmp,Judgeindirect,blacksquare2.gif,pic61.bmp,Mask.bmp,0121416,12:27:20,4.0.9.0,103,blackindirect,4,42,1140,plus1,0,b03.bmp,Judgeindirect,blacksquare2.gif,pic19.bmp,Mask.bmp,0121416,12:27:20,4.0.9.0,103,blackindirect,4,43,1384,plus1,0,b12.bmp,Judgeindirect,blacksquare2.gif,pic15.bmp,Mask.bmp,0121416,12:27:20,4.0.9.0,103,whiteindirect,4,44,4123,plus1,0,w02.bmp,Judgeindirect,blacksquare2.gif,pic41.bmp,Mask.bmp,0121416,12:27:20,4.0.9.0,103,neutral,4,45,2105,plus1,0,GREY.bmp,Judgeindirect,blacksquare2.gif,pic28.bmp,Mask.bmp,0121416,12:27:20,4.0.9.0,103,neutral,4,46,3063,plus1,0,GREY.bmp,Judgeindirect,blacksquare2.gif,pic72.bmp,Mask.bmp,0121416,12:27:20,4.0.9.0,103,neutral,4,47,800,plus1,0,GREY.bmp,Judgeindirect,blacksquare2.gif,pic51.bmp,Mask.bmp,0121416,12:27:20,4.0.9.0,103,neutral,4,48,1561,plus1,0,GREY.bmp,Judgeindirect,blacksquare2.gif,pic9.bmp,Mask.bmp,0121416,12:27:20,4.0.9.0,103,neutral,4,49,1133,minus1,0,GREY.bmp,Judgeindirect,blacksquare2.gif,pic39.bmp,Mask.bmp,0121416,12:27:20,4.0.9.0,103,whiteindirect,4,50,1890,minus1,0,w03.bmp,Judgeindirect,blacksquare2.gif,pic38.bmp,Mask.bmp,0121416,12:27:20,4.0.9.0,103,blackindirect,4,51,1137,plus1,0,b06.bmp,Judgeindirect,blacksquare2.gif,pic47.bmp,Mask.bmp,0121416,12:27:20,4.0.9.0,103,whiteindirect,4,52,1613,minus1,0,w05.bmp,Judgeindirect,blacksquare2.gif,pic13.bmp,Mask.bmp,0121416,12:27:20,4.0.9.0,103,whiteindirect,4,53,2615,minus1,0,w06.bmp,Judgeindirect,blacksquare2.gif,pic34.bmp,Mask.bmp,0121416,12:27:20,4.0.9.0,103,whiteindirect,4,54,1481,plus1,0,b12.jpg,Judgeindirect,blacksquare2.gif,pic1.bmp,Mask.bmp,0121416,12:27:20,4.0.9.0,103,whiteindirect,4,55,1376,plus1,0,w01.bmp,Judgeindirect,blacksquare2.gif,pic3.bmp,Mask.bmp,0121416,12:27:20,4.0.9.0,103,blackindirect,4,56,1723,minus2,0,b11.bmp,Judgeindirect,blacksquare2.gif,pic5.bmp,Mask.bmp,0121416,12:27:20,4.0.9.0,103,neutral,4,57,2633,plus1,0,GREY.bmp,Judgeindirect,blacksquare2.gif,pic45.bmp,Mask.bmp,0121416,12:27:20,4.0.9.0,103,whiteindirect,4,58,4361,minus1,0,w04.bmp,Judgeindirect,blacksquare2.gif,pic6.bmp,Mask.bmp,0121416,12:27:20,4.0.9.0,103,neutral,4,59,1102,plus1,0,GREY.bmp,Judgeindirect,blacksquare2.gif,pic53.bmp,Mask.bmp,0121416,12:27:20,4.0.9.0,103,blackindirect,4,60,548,plus1,0,b07.bmp,Judgeindirect,blacksquare2.gif,pic14.bmp,Mask.bmp,0121416,12:27:20,4.0.9.0,103,whiteindirect,4,61,2392,plus1,0,b11.jpg,Judgeindirect,blacksquare2.gif,pic20.bmp,Mask.bmp,0121416,12:27:20,4.0.9.0,103,whiteindirect,4,62,3243,minus1,0,b10.jpg,Judgeindirect,blacksquare2.gif,pic75.bmp,Mask.bmp,0121416,12:27:20,4.0.9.0,103,whiteindirect,4,63,1357,minus1,0,w07.bmp,Judgeindirect,blacksquare2.gif,pic27.bmp,Mask.bmp,0121416,12:27:20,4.0.9.0,103,neutral,4,64,1017,plus1,0,GREY.bmp,Judgeindirect,blacksquare2.gif,pic11.bmp,Mask.bmp,0121416,12:27:20,4.0.9.0,103,blackindirect,4,65,1794,minus1,0,b01.bmp,Judgeindirect,blacksquare2.gif,pic26.bmp,Mask.bmp,0121416,12:27:20,4.0.9.0,103,blackindirect,4,66,1684,plus1,0,b10.bmp,Judgeindirect,blacksquare2.gif,pic29.bmp,Mask.bmp,0121416,12:27:20,4.0.9.0,103,blackindirect,4,67,1859,plus1,0,b04.bmp,Judgeindirect,blacksquare2.gif,pic22.bmp,Mask.bmp,0121416,12:27:20,4.0.9.0,103,neutral,4,68,723,plus1,0,GREY.bmp,Judgeindirect,blacksquare2.gif,pic42.bmp,Mask.bmp,0121416,12:27:20,4.0.9.0,103,whiteindirect,4,69,1088,minus1,0,w08.bmp,Judgeindirect,blacksquare2.gif,pic2.bmp,Mask.bmp,0121416,12:27:20,4.0.9.0,103,blackindirect,4,70,2399,plus1,0,b08.bmp,Judgeindirect,blacksquare2.gif,pic37.bmp,Mask.bmp,0121416,12:27:20,4.0.9.0,103,neutral,4,71,1457,minus1,0,GREY.bmp,Judgeindirect,blacksquare2.gif,pic74.bmp,Mask.bmp,0121416,12:27:20,4.0.9.0,103,neutral,4,72,1929,minus1,0,GREY.bmp,Judgeindirect,blacksquare2.gif,pic46.bmp,Mask.bmp,0121416,12:27:20,4.0.9.0,103,whitedirect,6,1,2749,minus1,0,w07.bmp,Judgedirect,blacksquare2.gif,pic116.bmp,Mask.bmp,0121416,12:27:20,4.0.9.0,103,blackdirect,6,2,825,minus1,0,b09.bmp,Judgedirect,blacksquare2.gif,pic100.bmp,Mask.bmp,0121416,12:27:20,4.0.9.0,103,whitedirect,6,3,674,minus1,0,w09.bmp,Judgedirect,blacksquare2.gif,pic107.bmp,Mask.bmp,0121416,12:27:20,4.0.9.0,103,blackdirect,6,4,2689,minus1,0,b02.bmp,Judgedirect,blacksquare2.gif,pic113.bmp,Mask.bmp,0121416,12:27:20,4.0.9.0,103,whitedirect,6,5,1616,plus1,0,w05.bmp,Judgedirect,blacksquare2.gif,pic118.bmp,Mask.bmp,0121416,12:27:20,4.0.9.0,103,blackdirect,6,6,921,minus1,0,b08.bmp,Judgedirect,blacksquare2.gif,pic81.bmp,Mask.bmp,0121416,12:27:20,4.0.9.0,103,whitedirect,6,7,1078,minus2,0,w04.bmp,Judgedirect,blacksquare2.gif,pic108.bmp,Mask.bmp,0121416,12:27:20,4.0.9.0,103,blackdirect,6,8,1302,minus1,0,b10.bmp,Judgedirect,blacksquare2.gif,pic109.bmp,Mask.bmp,0121416,12:27:20,4.0.9.0,103,whitedirect,6,9,444,minus1,0,w03.bmp,Judgedirect,blacksquare2.gif,pic112.bmp,Mask.bmp,0121416,12:27:20,4.0.9.0,103,blackdirect,6,10,756,minus1,0,b11.bmp,Judgedirect,blacksquare2.gif,pic78.bmp,Mask.bmp,0121416,12:27:20,4.0.9.0,103,whitedirect,6,11,2015,minus1,0,w01.bmp,Judgedirect,blacksquare2.gif,pic115.bmp,Mask.bmp,0121416,12:27:20,4.0.9.0,103,blackdirect,6,12,969,plus1,0,b06.bmp,Judgedirect,blacksquare2.gif,pic101.bmp,Mask.bmp,0121416,12:27:20,4.0.9.0,103,whitedirect,6,13,1868,minus1,0,w08.bmp,Judgedirect,blacksquare2.gif,pic103.bmp,Mask.bmp,0121416,12:27:20,4.0.9.0,103,blackdirect,6,14,1363,minus1,0,b05.bmp,Judgedirect,blacksquare2.gif,pic111.bmp,Mask.bmp,0121416,12:27:20,4.0.9.0,103,whitedirect,6,15,2783,minus1,0,b12.jpg,Judgedirect,blacksquare2.gif,pic80.bmp,Mask.bmp,0121416,12:27:20,4.0.9.0,103,blackdirect,6,16,3034,minus1,0,b12.bmp,Judgedirect,blacksquare2.gif,pic79.bmp,Mask.bmp,0121416,12:27:20,4.0.9.0,103,whitedirect,6,17,1963,minus1,0,w06.bmp,Judgedirect,blacksquare2.gif,pic102.bmp,Mask.bmp,0121416,12:27:20,4.0.9.0,103,blackdirect,6,18,1296,minus1,0,b07.bmp,Judgedirect,blacksquare2.gif,pic104.bmp,Mask.bmp,0121416,12:27:20,4.0.9.0,103,whitedirect,6,19,766,minus1,0,w02.bmp,Judgedirect,blacksquare2.gif,pic105.bmp,Mask.bmp,0121416,12:27:20,4.0.9.0,103,blackdirect,6,20,873,plus1,0,b04.bmp,Judgedirect,blacksquare2.gif,pic82.bmp,Mask.bmp,0121416,12:27:20,4.0.9.0,103,whitedirect,6,21,1336,minus1,0,b11.jpg,Judgedirect,blacksquare2.gif,pic114.bmp,Mask.bmp,0121416,12:27:20,4.0.9.0,103,blackdirect,6,22,2541,plus1,0,b03.bmp,Judgedirect,blacksquare2.gif,pic106.bmp,Mask.bmp,0121416,12:27:20,4.0.9.0,103,whitedirect,6,23,970,minus1,0,b10.jpg,Judgedirect,blacksquare2.gif,pic110.bmp,Mask.bmp,0121416,12:27:20,4.0.9.0,103,blackdirect,6,24,1157,plus1,0,b01.bmp,Judgedirect,blacksquare2.gif,pic117.bmp,Mask.bmp,0121416,12:27:20,4.0.9.0,103,sesso,7,1,11221,1,1,0,demo,0,0,0,0121416,12:27:20,4.0.9.0,103,anni,7,1,11221,19,1,0,demo,0,0,0,0121416,12:27:20,4.0.9.0,103,etnia,7,1,11221,Caucasico,1,0,demo,0,0,0,0121416,12:26:55,4.0.9.0,104,practice,1,1,5842,57,1,sample.bmp,orient1,blacksquare2.gif,pic76.bmp,Mask.bmp,0121416,12:26:55,4.0.9.0,104,whitedirect,4,1,4194,minus1,0,w03.bmp,Judgedirect,blacksquare2.gif,pic111.bmp,Mask.bmp,0121416,12:26:55,4.0.9.0,104,blackdirect,4,2,2536,plus1,0,b03.bmp,Judgedirect,blacksquare2.gif,pic78.bmp,Mask.bmp,0121416,12:26:55,4.0.9.0,104,whitedirect,4,3,1026,plus1,0,b12.jpg,Judgedirect,blacksquare2.gif,pic112.bmp,Mask.bmp,0121416,12:26:55,4.0.9.0,104,blackdirect,4,4,636,plus1,0,b02.bmp,Judgedirect,blacksquare2.gif,pic110.bmp,Mask.bmp,0121416,12:26:55,4.0.9.0,104,whitedirect,4,5,832,plus1,0,b11.jpg,Judgedirect,blacksquare2.gif,pic113.bmp,Mask.bmp,0121416,12:26:55,4.0.9.0,104,blackdirect,4,6,573,plus1,0,b05.bmp,Judgedirect,blacksquare2.gif,pic105.bmp,Mask.bmp,0121416,12:26:55,4.0.9.0,104,whitedirect,4,7,1634,plus2,0,w09.bmp,Judgedirect,blacksquare2.gif,pic80.bmp,Mask.bmp,0121416,12:26:55,4.0.9.0,104,blackdirect,4,8,922,plus1,0,b10.bmp,Judgedirect,blacksquare2.gif,pic116.bmp,Mask.bmp,0121416,12:26:55,4.0.9.0,104,whitedirect,4,9,620,plus1,0,b10.jpg,Judgedirect,blacksquare2.gif,pic109.bmp,Mask.bmp,0121416,12:26:55,4.0.9.0,104,blackdirect,4,10,5138,minus1,0,b01.bmp,Judgedirect,blacksquare2.gif,pic100.bmp,Mask.bmp,0121416,12:26:55,4.0.9.0,104,whitedirect,4,11,1122,plus1,0,w06.bmp,Judgedirect,blacksquare2.gif,pic117.bmp,Mask.bmp,0121416,12:26:55,4.0.9.0,104,blackdirect,4,12,1181,minus1,0,b08.bmp,Judgedirect,blacksquare2.gif,pic79.bmp,Mask.bmp,0121416,12:26:55,4.0.9.0,104,whitedirect,4,13,1773,minus1,0,w04.bmp,Judgedirect,blacksquare2.gif,pic81.bmp,Mask.bmp,0121416,12:26:55,4.0.9.0,104,blackdirect,4,14,1163,minus1,0,b11.bmp,Judgedirect,blacksquare2.gif,pic103.bmp,Mask.bmp,0121416,12:26:55,4.0.9.0,104,whitedirect,4,15,771,plus1,0,w01.bmp,Judgedirect,blacksquare2.gif,pic102.bmp,Mask.bmp,0121416,12:26:55,4.0.9.0,104,blackdirect,4,16,1405,plus1,0,b12.bmp,Judgedirect,blacksquare2.gif,pic106.bmp,Mask.bmp,0121416,12:26:55,4.0.9.0,104,whitedirect,4,17,558,plus1,0,w07.bmp,Judgedirect,blacksquare2.gif,pic104.bmp,Mask.bmp,0121416,12:26:55,4.0.9.0,104,blackdirect,4,18,510,plus1,0,b07.bmp,Judgedirect,blacksquare2.gif,pic82.bmp,Mask.bmp,0121416,12:26:55,4.0.9.0,104,whitedirect,4,19,451,plus1,0,w02.bmp,Judgedirect,blacksquare2.gif,pic101.bmp,Mask.bmp,0121416,12:26:55,4.0.9.0,104,blackdirect,4,20,750,plus1,0,b06.bmp,Judgedirect,blacksquare2.gif,pic118.bmp,Mask.bmp,0121416,12:26:55,4.0.9.0,104,whitedirect,4,21,1534,plus1,0,w08.bmp,Judgedirect,blacksquare2.gif,pic114.bmp,Mask.bmp,0121416,12:26:55,4.0.9.0,104,blackdirect,4,22,1872,plus1,0,b04.bmp,Judgedirect,blacksquare2.gif,pic115.bmp,Mask.bmp,0121416,12:26:55,4.0.9.0,104,whitedirect,4,23,917,minus1,0,w05.bmp,Judgedirect,blacksquare2.gif,pic108.bmp,Mask.bmp,0121416,12:26:55,4.0.9.0,104,blackdirect,4,24,717,plus1,0,b09.bmp,Judgedirect,blacksquare2.gif,pic107.bmp,Mask.bmp,0121416,12:26:55,4.0.9.0,104,neutral,6,1,1528,plus2,0,GREY.bmp,Judgeindirect,blacksquare2.gif,pic27.bmp,Mask.bmp,0121416,12:26:55,4.0.9.0,104,whiteindirect,6,2,1546,plus1,0,b12.jpg,Judgeindirect,blacksquare2.gif,pic20.bmp,Mask.bmp,0121416,12:26:55,4.0.9.0,104,whiteindirect,6,3,730,plus1,0,w07.bmp,Judgeindirect,blacksquare2.gif,pic15.bmp,Mask.bmp,0121416,12:26:55,4.0.9.0,104,whiteindirect,6,4,1265,plus1,0,w06.bmp,Judgeindirect,blacksquare2.gif,pic56.bmp,Mask.bmp,0121416,12:26:55,4.0.9.0,104,whiteindirect,6,5,2459,plus1,0,b11.jpg,Judgeindirect,blacksquare2.gif,pic44.bmp,Mask.bmp,0121416,12:26:55,4.0.9.0,104,whiteindirect,6,6,1170,plus1,0,b10.jpg,Judgeindirect,blacksquare2.gif,pic37.bmp,Mask.bmp,0121416,12:26:55,4.0.9.0,104,whiteindirect,6,7,1966,plus2,0,w01.bmp,Judgeindirect,blacksquare2.gif,pic34.bmp,Mask.bmp,0121416,12:26:55,4.0.9.0,104,whiteindirect,6,8,1523,minus1,0,w04.bmp,Judgeindirect,blacksquare2.gif,pic74.bmp,Mask.bmp,0121416,12:26:55,4.0.9.0,104,blackindirect,6,9,958,plus1,0,b04.bmp,Judgeindirect,blacksquare2.gif,pic52.bmp,Mask.bmp,0121416,12:26:55,4.0.9.0,104,whiteindirect,6,10,2308,plus1,0,w05.bmp,Judgeindirect,blacksquare2.gif,pic29.bmp,Mask.bmp,0121416,12:26:55,4.0.9.0,104,neutral,6,11,1144,plus2,0,GREY.bmp,Judgeindirect,blacksquare2.gif,pic30.bmp,Mask.bmp,0121416,12:26:55,4.0.9.0,104,neutral,6,12,595,plus2,0,GREY.bmp,Judgeindirect,blacksquare2.gif,pic69.bmp,Mask.bmp,0121416,12:26:55,4.0.9.0,104,blackindirect,6,13,881,plus1,0,b12.bmp,Judgeindirect,blacksquare2.gif,pic66.bmp,Mask.bmp,0121416,12:26:55,4.0.9.0,104,neutral,6,14,1375,plus1,0,GREY.bmp,Judgeindirect,blacksquare2.gif,pic40.bmp,Mask.bmp,0121416,12:26:55,4.0.9.0,104,blackindirect,6,15,4814,minus1,0,b01.bmp,Judgeindirect,blacksquare2.gif,pic24.bmp,Mask.bmp,0121416,12:26:55,4.0.9.0,104,whiteindirect,6,16,1877,minus1,0,w02.bmp,Judgeindirect,blacksquare2.gif,pic72.bmp,Mask.bmp,0121416,12:26:55,4.0.9.0,104,neutral,6,17,1126,plus1,0,GREY.bmp,Judgeindirect,blacksquare2.gif,pic55.bmp,Mask.bmp,0121416,12:26:55,4.0.9.0,104,blackindirect,6,18,818,plus1,0,b10.bmp,Judgeindirect,blacksquare2.gif,pic58.bmp,Mask.bmp,0121416,12:26:55,4.0.9.0,104,blackindirect,6,19,1281,plus2,0,b03.bmp,Judgeindirect,blacksquare2.gif,pic9.bmp,Mask.bmp,0121416,12:26:55,4.0.9.0,104,whiteindirect,6,20,751,plus2,0,w08.bmp,Judgeindirect,blacksquare2.gif,pic42.bmp,Mask.bmp,0121416,12:26:55,4.0.9.0,104,neutral,6,21,587,plus2,0,GREY.bmp,Judgeindirect,blacksquare2.gif,pic26.bmp,Mask.bmp,0121416,12:26:55,4.0.9.0,104,neutral,6,22,835,plus2,0,GREY.bmp,Judgeindirect,blacksquare2.gif,pic49.bmp,Mask.bmp,0121416,12:26:55,4.0.9.0,104,whiteindirect,6,23,1444,plus1,0,w03.bmp,Judgeindirect,blacksquare2.gif,pic1.bmp,Mask.bmp,0121416,12:26:55,4.0.9.0,104,blackindirect,6,24,1075,plus2,0,b02.bmp,Judgeindirect,blacksquare2.gif,pic41.bmp,Mask.bmp,0121416,12:26:55,4.0.9.0,104,blackindirect,6,25,2451,plus1,0,b09.bmp,Judgeindirect,blacksquare2.gif,pic31.bmp,Mask.bmp,0121416,12:26:55,4.0.9.0,104,neutral,6,26,1730,plus1,0,GREY.bmp,Judgeindirect,blacksquare2.gif,pic64.bmp,Mask.bmp,0121416,12:26:55,4.0.9.0,104,whiteindirect,6,27,1466,plus1,0,w09.bmp,Judgeindirect,blacksquare2.gif,pic18.bmp,Mask.bmp,0121416,12:26:55,4.0.9.0,104,neutral,6,28,809,plus1,0,GREY.bmp,Judgeindirect,blacksquare2.gif,pic65.bmp,Mask.bmp,0121416,12:26:55,4.0.9.0,104,whiteindirect,6,29,1573,plus1,0,w03.bmp,Judgeindirect,blacksquare2.gif,pic46.bmp,Mask.bmp,0121416,12:26:55,4.0.9.0,104,blackindirect,6,30,1664,plus1,0,b11.bmp,Judgeindirect,blacksquare2.gif,pic43.bmp,Mask.bmp,0121416,12:26:55,4.0.9.0,104,neutral,6,31,1415,plus2,0,GREY.bmp,Judgeindirect,blacksquare2.gif,pic21.bmp,Mask.bmp,0121416,12:26:55,4.0.9.0,104,blackindirect,6,32,1226,plus1,0,b08.bmp,Judgeindirect,blacksquare2.gif,pic73.bmp,Mask.bmp,0121416,12:26:55,4.0.9.0,104,neutral,6,33,2034,plus1,0,GREY.bmp,Judgeindirect,blacksquare2.gif,pic71.bmp,Mask.bmp,0121416,12:26:55,4.0.9.0,104,neutral,6,34,1250,plus2,0,GREY.bmp,Judgeindirect,blacksquare2.gif,pic12.bmp,Mask.bmp,0121416,12:26:55,4.0.9.0,104,blackindirect,6,35,1452,minus1,0,b05.bmp,Judgeindirect,blacksquare2.gif,pic19.bmp,Mask.bmp,0121416,12:26:55,4.0.9.0,104,blackindirect,6,36,1087,minus1,0,b06.bmp,Judgeindirect,blacksquare2.gif,pic25.bmp,Mask.bmp,0121416,12:26:55,4.0.9.0,104,blackindirect,6,37,659,minus1,0,b07.bmp,Judgeindirect,blacksquare2.gif,pic16.bmp,Mask.bmp,0121416,12:26:55,4.0.9.0,104,neutral,6,38,1237,plus1,0,GREY.bmp,Judgeindirect,blacksquare2.gif,pic54.bmp,Mask.bmp,0121416,12:26:55,4.0.9.0,104,neutral,6,39,1824,minus1,0,GREY.bmp,Judgeindirect,blacksquare2.gif,pic47.bmp,Mask.bmp,0121416,12:26:55,4.0.9.0,104,whiteindirect,6,40,1583,plus1,0,b10.jpg,Judgeindirect,blacksquare2.gif,pic32.bmp,Mask.bmp,0121416,12:26:55,4.0.9.0,104,whiteindirect,6,41,1197,plus1,0,w05.bmp,Judgeindirect,blacksquare2.gif,pic22.bmp,Mask.bmp,0121416,12:26:55,4.0.9.0,104,whiteindirect,6,42,1364,plus1,0,b12.jpg,Judgeindirect,blacksquare2.gif,pic70.bmp,Mask.bmp,0121416,12:26:55,4.0.9.0,104,whiteindirect,6,43,1641,plus1,0,w08.bmp,Judgeindirect,blacksquare2.gif,pic14.bmp,Mask.bmp,0121416,12:26:55,4.0.9.0,104,whiteindirect,6,44,1553,plus1,0,w07.bmp,Judgeindirect,blacksquare2.gif,pic48.bmp,Mask.bmp,0121416,12:26:55,4.0.9.0,104,neutral,6,45,1272,minus1,0,GREY.bmp,Judgeindirect,blacksquare2.gif,pic67.bmp,Mask.bmp,0121416,12:26:55,4.0.9.0,104,blackindirect,6,46,1416,minus1,0,b01.bmp,Judgeindirect,blacksquare2.gif,pic2.bmp,Mask.bmp,0121416,12:26:55,4.0.9.0,104,neutral,6,47,1800,plus1,0,GREY.bmp,Judgeindirect,blacksquare2.gif,pic8.bmp,Mask.bmp,0121416,12:26:55,4.0.9.0,104,neutral,6,48,1248,minus1,0,GREY.bmp,Judgeindirect,blacksquare2.gif,pic68.bmp,Mask.bmp,0121416,12:26:55,4.0.9.0,104,blackindirect,6,49,1140,minus1,0,b04.bmp,Judgeindirect,blacksquare2.gif,pic45.bmp,Mask.bmp,0121416,12:26:55,4.0.9.0,104,blackindirect,6,50,1113,minus1,0,b10.bmp,Judgeindirect,blacksquare2.gif,pic28.bmp,Mask.bmp,0121416,12:26:55,4.0.9.0,104,whiteindirect,6,51,1527,plus1,0,w09.bmp,Judgeindirect,blacksquare2.gif,pic57.bmp,Mask.bmp,0121416,12:26:55,4.0.9.0,104,neutral,6,52,993,plus1,0,GREY.bmp,Judgeindirect,blacksquare2.gif,pic3.bmp,Mask.bmp,0121416,12:26:55,4.0.9.0,104,neutral,6,53,1331,minus1,0,GREY.bmp,Judgeindirect,blacksquare2.gif,pic6.bmp,Mask.bmp,0121416,12:26:55,4.0.9.0,104,neutral,6,54,1661,plus1,0,GREY.bmp,Judgeindirect,blacksquare2.gif,pic5.bmp,Mask.bmp,0121416,12:26:55,4.0.9.0,104,blackindirect,6,55,1495,minus1,0,b08.bmp,Judgeindirect,blacksquare2.gif,pic60.bmp,Mask.bmp,0121416,12:26:55,4.0.9.0,104,whiteindirect,6,56,1352,plus1,0,w04.bmp,Judgeindirect,blacksquare2.gif,pic62.bmp,Mask.bmp,0121416,12:26:55,4.0.9.0,104,blackindirect,6,57,1681,minus1,0,b09.bmp,Judgeindirect,blacksquare2.gif,pic50.bmp,Mask.bmp,0121416,12:26:55,4.0.9.0,104,neutral,6,58,1733,plus1,0,GREY.bmp,Judgeindirect,blacksquare2.gif,pic11.bmp,Mask.bmp,0121416,12:26:55,4.0.9.0,104,blackindirect,6,59,1535,minus1,0,b12.bmp,Judgeindirect,blacksquare2.gif,pic61.bmp,Mask.bmp,0121416,12:26:55,4.0.9.0,104,blackindirect,6,60,1710,minus1,0,b11.bmp,Judgeindirect,blacksquare2.gif,pic38.bmp,Mask.bmp,0121416,12:26:55,4.0.9.0,104,whiteindirect,6,61,1269,plus1,0,w06.bmp,Judgeindirect,blacksquare2.gif,pic7.bmp,Mask.bmp,0121416,12:26:55,4.0.9.0,104,blackindirect,6,62,1312,minus1,0,b02.bmp,Judgeindirect,blacksquare2.gif,pic33.bmp,Mask.bmp,0121416,12:26:55,4.0.9.0,104,whiteindirect,6,63,1056,minus1,0,w02.bmp,Judgeindirect,blacksquare2.gif,pic10.bmp,Mask.bmp,0121416,12:26:55,4.0.9.0,104,neutral,6,64,1592,plus2,0,GREY.bmp,Judgeindirect,blacksquare2.gif,pic23.bmp,Mask.bmp,0121416,12:26:55,4.0.9.0,104,blackindirect,6,65,1932,plus1,0,b07.bmp,Judgeindirect,blacksquare2.gif,pic59.bmp,Mask.bmp,0121416,12:26:55,4.0.9.0,104,whiteindirect,6,66,1666,minus1,0,w01.bmp,Judgeindirect,blacksquare2.gif,pic51.bmp,Mask.bmp,0121416,12:26:55,4.0.9.0,104,whiteindirect,6,67,2239,minus1,0,b11.jpg,Judgeindirect,blacksquare2.gif,pic36.bmp,Mask.bmp,0121416,12:26:55,4.0.9.0,104,neutral,6,68,1347,plus1,0,GREY.bmp,Judgeindirect,blacksquare2.gif,pic75.bmp,Mask.bmp,0121416,12:26:55,4.0.9.0,104,neutral,6,69,1814,plus2,0,GREY.bmp,Judgeindirect,blacksquare2.gif,pic39.bmp,Mask.bmp,0121416,12:26:55,4.0.9.0,104,blackindirect,6,70,1314,minus1,0,b03.bmp,Judgeindirect,blacksquare2.gif,pic13.bmp,Mask.bmp,0121416,12:26:55,4.0.9.0,104,blackindirect,6,71,1671,plus1,0,b05.bmp,Judgeindirect,blacksquare2.gif,pic17.bmp,Mask.bmp,0121416,12:26:55,4.0.9.0,104,blackindirect,6,72,1263,minus1,0,b06.bmp,Judgeindirect,blacksquare2.gif,pic53.bmp,Mask.bmp,0121416,12:26:55,4.0.9.0,104,sesso,7,1,14150,2,1,0,demo,0,0,0,0121416,12:26:55,4.0.9.0,104,anni,7,1,14150,20,1,0,demo,0,0,0,0121416,12:26:55,4.0.9.0,104,etnia,7,1,14150,Caucasico,1,0,demo,0,0,0,0121416,12:27:29,4.0.9.0,105,practice,1,1,4441,57,1,sample.bmp,orient1,blacksquare2.gif,pic76.bmp,Mask.bmp,0121416,12:27:29,4.0.9.0,105,whitedirect,4,1,7008,plus1,0,w06.bmp,Judgedirect,blacksquare2.gif,pic106.bmp,Mask.bmp,0121416,12:27:29,4.0.9.0,105,blackdirect,4,2,2942,plus1,0,b04.bmp,Judgedirect,blacksquare2.gif,pic118.bmp,Mask.bmp,0121416,12:27:29,4.0.9.0,105,whitedirect,4,3,1901,minus2,0,b11.jpg,Judgedirect,blacksquare2.gif,pic112.bmp,Mask.bmp,0121416,12:27:29,4.0.9.0,105,blackdirect,4,4,1060,minus2,0,b11.bmp,Judgedirect,blacksquare2.gif,pic79.bmp,Mask.bmp,0121416,12:27:29,4.0.9.0,105,whitedirect,4,5,1234,minus1,0,w07.bmp,Judgedirect,blacksquare2.gif,pic80.bmp,Mask.bmp,0121416,12:27:29,4.0.9.0,105,blackdirect,4,6,2206,plus2,0,b07.bmp,Judgedirect,blacksquare2.gif,pic100.bmp,Mask.bmp,0121416,12:27:29,4.0.9.0,105,whitedirect,4,7,1937,plus1,0,b10.jpg,Judgedirect,blacksquare2.gif,pic108.bmp,Mask.bmp,0121416,12:27:29,4.0.9.0,105,blackdirect,4,8,532,plus1,0,b10.bmp,Judgedirect,blacksquare2.gif,pic103.bmp,Mask.bmp,0121416,12:27:29,4.0.9.0,105,whitedirect,4,9,1573,minus1,0,w01.bmp,Judgedirect,blacksquare2.gif,pic111.bmp,Mask.bmp,0121416,12:27:29,4.0.9.0,105,blackdirect,4,10,1397,minus2,0,b05.bmp,Judgedirect,blacksquare2.gif,pic105.bmp,Mask.bmp,0121416,12:27:29,4.0.9.0,105,whitedirect,4,11,768,minus2,0,w05.bmp,Judgedirect,blacksquare2.gif,pic78.bmp,Mask.bmp,0121416,12:27:29,4.0.9.0,105,blackdirect,4,12,1265,plus1,0,b01.bmp,Judgedirect,blacksquare2.gif,pic115.bmp,Mask.bmp,0121416,12:27:29,4.0.9.0,105,whitedirect,4,13,1318,plus1,0,w02.bmp,Judgedirect,blacksquare2.gif,pic113.bmp,Mask.bmp,0121416,12:27:29,4.0.9.0,105,blackdirect,4,14,902,plus1,0,b12.bmp,Judgedirect,blacksquare2.gif,pic117.bmp,Mask.bmp,0121416,12:27:29,4.0.9.0,105,whitedirect,4,15,678,plus1,0,b12.jpg,Judgedirect,blacksquare2.gif,pic102.bmp,Mask.bmp,0121416,12:27:29,4.0.9.0,105,blackdirect,4,16,1000,plus1,0,b09.bmp,Judgedirect,blacksquare2.gif,pic101.bmp,Mask.bmp,0121416,12:27:29,4.0.9.0,105,whitedirect,4,17,665,plus1,0,w08.bmp,Judgedirect,blacksquare2.gif,pic104.bmp,Mask.bmp,0121416,12:27:29,4.0.9.0,105,blackdirect,4,18,563,plus1,0,b03.bmp,Judgedirect,blacksquare2.gif,pic114.bmp,Mask.bmp,0121416,12:27:29,4.0.9.0,105,whitedirect,4,19,1073,plus1,0,w09.bmp,Judgedirect,blacksquare2.gif,pic110.bmp,Mask.bmp,0121416,12:27:29,4.0.9.0,105,blackdirect,4,20,1428,plus1,0,b06.bmp,Judgedirect,blacksquare2.gif,pic82.bmp,Mask.bmp,0121416,12:27:29,4.0.9.0,105,whitedirect,4,21,903,plus1,0,w04.bmp,Judgedirect,blacksquare2.gif,pic107.bmp,Mask.bmp,0121416,12:27:29,4.0.9.0,105,blackdirect,4,22,943,plus1,0,b08.bmp,Judgedirect,blacksquare2.gif,pic116.bmp,Mask.bmp,0121416,12:27:29,4.0.9.0,105,whitedirect,4,23,1268,plus1,0,w03.bmp,Judgedirect,blacksquare2.gif,pic81.bmp,Mask.bmp,0121416,12:27:29,4.0.9.0,105,blackdirect,4,24,629,plus1,0,b02.bmp,Judgedirect,blacksquare2.gif,pic109.bmp,Mask.bmp,0121416,12:27:29,4.0.9.0,105,whiteindirect,6,1,4767,minus1,0,w08.bmp,Judgeindirect,blacksquare2.gif,pic28.bmp,Mask.bmp,0121416,12:27:29,4.0.9.0,105,neutral,6,2,2974,minus1,0,GREY.bmp,Judgeindirect,blacksquare2.gif,pic39.bmp,Mask.bmp,0121416,12:27:29,4.0.9.0,105,whiteindirect,6,3,1822,plus1,0,w01.bmp,Judgeindirect,blacksquare2.gif,pic16.bmp,Mask.bmp,0121416,12:27:29,4.0.9.0,105,blackindirect,6,4,1475,minus2,0,b05.bmp,Judgeindirect,blacksquare2.gif,pic65.bmp,Mask.bmp,0121416,12:27:29,4.0.9.0,105,whiteindirect,6,5,2558,minus1,0,w07.bmp,Judgeindirect,blacksquare2.gif,pic14.bmp,Mask.bmp,0121416,12:27:29,4.0.9.0,105,blackindirect,6,6,1174,plus1,0,b03.bmp,Judgeindirect,blacksquare2.gif,pic63.bmp,Mask.bmp,0121416,12:27:29,4.0.9.0,105,blackindirect,6,7,858,plus1,0,b09.bmp,Judgeindirect,blacksquare2.gif,pic26.bmp,Mask.bmp,0121416,12:27:29,4.0.9.0,105,blackindirect,6,8,643,plus1,0,b10.bmp,Judgeindirect,blacksquare2.gif,pic44.bmp,Mask.bmp,0121416,12:27:29,4.0.9.0,105,blackindirect,6,9,920,plus1,0,b02.bmp,Judgeindirect,blacksquare2.gif,pic34.bmp,Mask.bmp,0121416,12:27:29,4.0.9.0,105,whiteindirect,6,10,982,plus1,0,w02.bmp,Judgeindirect,blacksquare2.gif,pic7.bmp,Mask.bmp,0121416,12:27:29,4.0.9.0,105,whiteindirect,6,11,467,plus1,0,w04.bmp,Judgeindirect,blacksquare2.gif,pic2.bmp,Mask.bmp,0121416,12:27:29,4.0.9.0,105,neutral,6,12,4454,plus1,0,GREY.bmp,Judgeindirect,blacksquare2.gif,pic24.bmp,Mask.bmp,0121416,12:27:29,4.0.9.0,105,whiteindirect,6,13,2733,plus1,0,w06.bmp,Judgeindirect,blacksquare2.gif,pic18.bmp,Mask.bmp,0121416,12:27:29,4.0.9.0,105,blackindirect,6,14,1106,minus2,0,b11.bmp,Judgeindirect,blacksquare2.gif,pic57.bmp,Mask.bmp,0121416,12:27:29,4.0.9.0,105,neutral,6,15,6862,minus1,0,GREY.bmp,Judgeindirect,blacksquare2.gif,pic59.bmp,Mask.bmp,0121416,12:27:29,4.0.9.0,105,neutral,6,16,1385,minus2,0,GREY.bmp,Judgeindirect,blacksquare2.gif,pic74.bmp,Mask.bmp,0121416,12:27:29,4.0.9.0,105,blackindirect,6,17,1128,plus1,0,b06.bmp,Judgeindirect,blacksquare2.gif,pic71.bmp,Mask.bmp,0121416,12:27:29,4.0.9.0,105,blackindirect,6,18,391,plus1,0,b07.bmp,Judgeindirect,blacksquare2.gif,pic54.bmp,Mask.bmp,0121416,12:27:29,4.0.9.0,105,neutral,6,19,2896,plus1,0,GREY.bmp,Judgeindirect,blacksquare2.gif,pic62.bmp,Mask.bmp,0121416,12:27:29,4.0.9.0,105,neutral,6,20,562,plus1,0,GREY.bmp,Judgeindirect,blacksquare2.gif,pic75.bmp,Mask.bmp,0121416,12:27:29,4.0.9.0,105,whiteindirect,6,21,759,plus1,0,b12.jpg,Judgeindirect,blacksquare2.gif,pic60.bmp,Mask.bmp,0121416,12:27:29,4.0.9.0,105,neutral,6,22,538,plus1,0,GREY.bmp,Judgeindirect,blacksquare2.gif,pic49.bmp,Mask.bmp,0121416,12:27:29,4.0.9.0,105,whiteindirect,6,23,958,plus1,0,w03.bmp,Judgeindirect,blacksquare2.gif,pic40.bmp,Mask.bmp,0121416,12:27:29,4.0.9.0,105,neutral,6,24,2423,plus1,0,GREY.bmp,Judgeindirect,blacksquare2.gif,pic69.bmp,Mask.bmp,0121416,12:27:29,4.0.9.0,105,whiteindirect,6,25,1673,plus1,0,w09.bmp,Judgeindirect,blacksquare2.gif,pic38.bmp,Mask.bmp,0121416,12:27:29,4.0.9.0,105,whiteindirect,6,26,1370,minus2,0,b11.jpg,Judgeindirect,blacksquare2.gif,pic56.bmp,Mask.bmp,0121416,12:27:29,4.0.9.0,105,whiteindirect,6,27,2543,plus1,0,w05.bmp,Judgeindirect,blacksquare2.gif,pic21.bmp,Mask.bmp,0121416,12:27:29,4.0.9.0,105,neutral,6,28,2984,minus1,0,GREY.bmp,Judgeindirect,blacksquare2.gif,pic17.bmp,Mask.bmp,0121416,12:27:29,4.0.9.0,105,whiteindirect,6,29,1432,plus1,0,b10.jpg,Judgeindirect,blacksquare2.gif,pic68.bmp,Mask.bmp,0121416,12:27:29,4.0.9.0,105,neutral,6,30,900,plus1,0,GREY.bmp,Judgeindirect,blacksquare2.gif,pic23.bmp,Mask.bmp,0121416,12:27:29,4.0.9.0,105,blackindirect,6,31,1665,minus1,0,b01.bmp,Judgeindirect,blacksquare2.gif,pic43.bmp,Mask.bmp,0121416,12:27:29,4.0.9.0,105,neutral,6,32,4061,minus1,0,GREY.bmp,Judgeindirect,blacksquare2.gif,pic5.bmp,Mask.bmp,0121416,12:27:29,4.0.9.0,105,neutral,6,33,2267,plus1,0,GREY.bmp,Judgeindirect,blacksquare2.gif,pic9.bmp,Mask.bmp,0121416,12:27:29,4.0.9.0,105,blackindirect,6,34,636,plus1,0,b12.bmp,Judgeindirect,blacksquare2.gif,pic20.bmp,Mask.bmp,0121416,12:27:29,4.0.9.0,105,blackindirect,6,35,491,plus1,0,b08.bmp,Judgeindirect,blacksquare2.gif,pic41.bmp,Mask.bmp,0121416,12:27:29,4.0.9.0,105,neutral,6,36,950,plus1,0,GREY.bmp,Judgeindirect,blacksquare2.gif,pic51.bmp,Mask.bmp,0121416,12:27:29,4.0.9.0,105,blackindirect,6,37,2090,minus2,0,b04.bmp,Judgeindirect,blacksquare2.gif,pic46.bmp,Mask.bmp,0121416,12:27:29,4.0.9.0,105,blackindirect,6,38,2016,plus1,0,b03.bmp,Judgeindirect,blacksquare2.gif,pic53.bmp,Mask.bmp,0121416,12:27:29,4.0.9.0,105,whiteindirect,6,39,488,plus1,0,w04.bmp,Judgeindirect,blacksquare2.gif,pic25.bmp,Mask.bmp,0121416,12:27:29,4.0.9.0,105,blackindirect,6,40,503,plus1,0,b02.bmp,Judgeindirect,blacksquare2.gif,pic42.bmp,Mask.bmp,0121416,12:27:29,4.0.9.0,105,whiteindirect,6,41,1122,plus1,0,w07.bmp,Judgeindirect,blacksquare2.gif,pic12.bmp,Mask.bmp,0121416,12:27:29,4.0.9.0,105,whiteindirect,6,42,939,plus1,0,w08.bmp,Judgeindirect,blacksquare2.gif,pic8.bmp,Mask.bmp,0121416,12:27:29,4.0.9.0,105,neutral,6,43,1244,plus1,0,GREY.bmp,Judgeindirect,blacksquare2.gif,pic3.bmp,Mask.bmp,0121416,12:27:29,4.0.9.0,105,whiteindirect,6,44,885,plus1,0,w02.bmp,Judgeindirect,blacksquare2.gif,pic6.bmp,Mask.bmp,0121416,12:27:29,4.0.9.0,105,whiteindirect,6,45,984,plus1,0,w01.bmp,Judgeindirect,blacksquare2.gif,pic45.bmp,Mask.bmp,0121416,12:27:29,4.0.9.0,105,blackindirect,6,46,921,plus1,0,b10.bmp,Judgeindirect,blacksquare2.gif,pic36.bmp,Mask.bmp,0121416,12:27:29,4.0.9.0,105,blackindirect,6,47,1154,plus1,0,b06.bmp,Judgeindirect,blacksquare2.gif,pic10.bmp,Mask.bmp,0121416,12:27:29,4.0.9.0,105,blackindirect,6,48,770,plus1,0,b12.bmp,Judgeindirect,blacksquare2.gif,pic67.bmp,Mask.bmp,0121416,12:27:29,4.0.9.0,105,neutral,6,49,1764,plus1,0,GREY.bmp,Judgeindirect,blacksquare2.gif,pic61.bmp,Mask.bmp,0121416,12:27:29,4.0.9.0,105,neutral,6,50,1115,plus1,0,GREY.bmp,Judgeindirect,blacksquare2.gif,pic11.bmp,Mask.bmp,0121416,12:27:29,4.0.9.0,105,neutral,6,51,1903,plus1,0,GREY.bmp,Judgeindirect,blacksquare2.gif,pic72.bmp,Mask.bmp,0121416,12:27:29,4.0.9.0,105,whiteindirect,6,52,1192,plus1,0,w09.bmp,Judgeindirect,blacksquare2.gif,pic50.bmp,Mask.bmp,0121416,12:27:29,4.0.9.0,105,neutral,6,53,1513,plus1,0,GREY.bmp,Judgeindirect,blacksquare2.gif,pic64.bmp,Mask.bmp,0121416,12:27:29,4.0.9.0,105,neutral,6,54,2192,plus1,0,GREY.bmp,Judgeindirect,blacksquare2.gif,pic52.bmp,Mask.bmp,0121416,12:27:29,4.0.9.0,105,whiteindirect,6,55,1185,plus1,0,b12.jpg,Judgeindirect,blacksquare2.gif,pic66.bmp,Mask.bmp,0121416,12:27:29,4.0.9.0,105,blackindirect,6,56,2736,plus1,0,b05.bmp,Judgeindirect,blacksquare2.gif,pic13.bmp,Mask.bmp,0121416,12:27:29,4.0.9.0,105,whiteindirect,6,57,946,plus1,0,w06.bmp,Judgeindirect,blacksquare2.gif,pic73.bmp,Mask.bmp,0121416,12:27:29,4.0.9.0,105,blackindirect,6,58,1337,plus1,0,b08.bmp,Judgeindirect,blacksquare2.gif,pic4.bmp,Mask.bmp,0121416,12:27:29,4.0.9.0,105,blackindirect,6,59,1115,plus1,0,b07.bmp,Judgeindirect,blacksquare2.gif,pic19.bmp,Mask.bmp,0121416,12:27:29,4.0.9.0,105,blackindirect,6,60,2652,minus2,0,b11.bmp,Judgeindirect,blacksquare2.gif,pic22.bmp,Mask.bmp,0121416,12:27:29,4.0.9.0,105,neutral,6,61,1551,minus1,0,GREY.bmp,Judgeindirect,blacksquare2.gif,pic29.bmp,Mask.bmp,0121416,12:27:29,4.0.9.0,105,blackindirect,6,62,1707,plus1,0,b09.bmp,Judgeindirect,blacksquare2.gif,pic33.bmp,Mask.bmp,0121416,12:27:29,4.0.9.0,105,neutral,6,63,535,plus1,0,GREY.bmp,Judgeindirect,blacksquare2.gif,pic32.bmp,Mask.bmp,0121416,12:27:29,4.0.9.0,105,blackindirect,6,64,1570,plus1,0,b01.bmp,Judgeindirect,blacksquare2.gif,pic55.bmp,Mask.bmp,0121416,12:27:29,4.0.9.0,105,neutral,6,65,776,plus1,0,GREY.bmp,Judgeindirect,blacksquare2.gif,pic58.bmp,Mask.bmp,0121416,12:27:29,4.0.9.0,105,blackindirect,6,66,1579,plus1,0,b04.bmp,Judgeindirect,blacksquare2.gif,pic15.bmp,Mask.bmp,0121416,12:27:29,4.0.9.0,105,whiteindirect,6,67,1070,plus1,0,b10.jpg,Judgeindirect,blacksquare2.gif,pic1.bmp,Mask.bmp,0121416,12:27:29,4.0.9.0,105,whiteindirect,6,68,452,plus1,0,w03.bmp,Judgeindirect,blacksquare2.gif,pic37.bmp,Mask.bmp,0121416,12:27:29,4.0.9.0,105,whiteindirect,6,69,1600,minus2,0,b11.jpg,Judgeindirect,blacksquare2.gif,pic27.bmp,Mask.bmp,0121416,12:27:29,4.0.9.0,105,neutral,6,70,2992,minus1,0,GREY.bmp,Judgeindirect,blacksquare2.gif,pic30.bmp,Mask.bmp,0121416,12:27:29,4.0.9.0,105,neutral,6,71,1744,minus2,0,GREY.bmp,Judgeindirect,blacksquare2.gif,pic70.bmp,Mask.bmp,0121416,12:27:29,4.0.9.0,105,whiteindirect,6,72,1196,plus1,0,w05.bmp,Judgeindirect,blacksquare2.gif,pic48.bmp,Mask.bmp,0121416,12:27:29,4.0.9.0,105,sesso,7,1,17677,2,1,0,demo,0,0,0,0121416,12:27:29,4.0.9.0,105,anni,7,1,17677,22,1,0,demo,0,0,0,0121416,12:27:29,4.0.9.0,105,etnia,7,1,17677,Altro,1,0,demo,0,0,0,0121416,12:27:42,4.0.9.0,106,practice,1,1,5147,57,1,sample.bmp,orient1,blacksquare2.gif,pic76.bmp,Mask.bmp,0121416,12:27:42,4.0.9.0,106,blackindirect,4,1,28356,plus1,0,b08.bmp,Judgeindirect,blacksquare2.gif,pic23.bmp,Mask.bmp,0121416,12:27:42,4.0.9.0,106,whiteindirect,4,2,14071,plus1,0,w05.bmp,Judgeindirect,blacksquare2.gif,pic6.bmp,Mask.bmp,0121416,12:27:42,4.0.9.0,106,neutral,4,3,2828,plus2,0,GREY.bmp,Judgeindirect,blacksquare2.gif,pic25.bmp,Mask.bmp,0121416,12:27:42,4.0.9.0,106,blackindirect,4,4,2111,plus1,0,b06.bmp,Judgeindirect,blacksquare2.gif,pic29.bmp,Mask.bmp,0121416,12:27:42,4.0.9.0,106,whiteindirect,4,5,2251,plus2,0,w08.bmp,Judgeindirect,blacksquare2.gif,pic13.bmp,Mask.bmp,0121416,12:27:42,4.0.9.0,106,whiteindirect,4,6,2383,plus2,0,w03.bmp,Judgeindirect,blacksquare2.gif,pic46.bmp,Mask.bmp,0121416,12:27:42,4.0.9.0,106,whiteindirect,4,7,1226,minus1,0,w07.bmp,Judgeindirect,blacksquare2.gif,pic71.bmp,Mask.bmp,0121416,12:27:42,4.0.9.0,106,neutral,4,8,1912,minus2,0,GREY.bmp,Judgeindirect,blacksquare2.gif,pic58.bmp,Mask.bmp,0121416,12:27:42,4.0.9.0,106,whiteindirect,4,9,1391,minus1,0,w06.bmp,Judgeindirect,blacksquare2.gif,pic33.bmp,Mask.bmp,0121416,12:27:42,4.0.9.0,106,neutral,4,10,982,plus1,0,GREY.bmp,Judgeindirect,blacksquare2.gif,pic50.bmp,Mask.bmp,0121416,12:27:42,4.0.9.0,106,whiteindirect,4,11,2359,minus1,0,b11.jpg,Judgeindirect,blacksquare2.gif,pic55.bmp,Mask.bmp,0121416,12:27:42,4.0.9.0,106,neutral,4,12,1497,plus2,0,GREY.bmp,Judgeindirect,blacksquare2.gif,pic51.bmp,Mask.bmp,0121416,12:27:42,4.0.9.0,106,whiteindirect,4,13,1414,plus1,0,w01.bmp,Judgeindirect,blacksquare2.gif,pic11.bmp,Mask.bmp,0121416,12:27:42,4.0.9.0,106,whiteindirect,4,14,1197,plus2,0,w02.bmp,Judgeindirect,blacksquare2.gif,pic8.bmp,Mask.bmp,0121416,12:27:42,4.0.9.0,106,blackindirect,4,15,1643,plus2,0,b09.bmp,Judgeindirect,blacksquare2.gif,pic48.bmp,Mask.bmp,0121416,12:27:42,4.0.9.0,106,blackindirect,4,16,1617,minus2,0,b10.bmp,Judgeindirect,blacksquare2.gif,pic16.bmp,Mask.bmp,0121416,12:27:42,4.0.9.0,106,neutral,4,17,2470,minus1,0,GREY.bmp,Judgeindirect,blacksquare2.gif,pic10.bmp,Mask.bmp,0121416,12:27:42,4.0.9.0,106,whiteindirect,4,18,1394,plus2,0,b10.jpg,Judgeindirect,blacksquare2.gif,pic19.bmp,Mask.bmp,0121416,12:27:42,4.0.9.0,106,neutral,4,19,1215,plus2,0,GREY.bmp,Judgeindirect,blacksquare2.gif,pic39.bmp,Mask.bmp,0121416,12:27:42,4.0.9.0,106,blackindirect,4,20,1895,minus1,0,b12.bmp,Judgeindirect,blacksquare2.gif,pic17.bmp,Mask.bmp,0121416,12:27:42,4.0.9.0,106,neutral,4,21,1380,minus1,0,GREY.bmp,Judgeindirect,blacksquare2.gif,pic43.bmp,Mask.bmp,0121416,12:27:42,4.0.9.0,106,neutral,4,22,1043,minus2,0,GREY.bmp,Judgeindirect,blacksquare2.gif,pic34.bmp,Mask.bmp,0121416,12:27:42,4.0.9.0,106,whiteindirect,4,23,1508,plus1,0,w09.bmp,Judgeindirect,blacksquare2.gif,pic26.bmp,Mask.bmp,0121416,12:27:42,4.0.9.0,106,whiteindirect,4,24,1409,plus1,0,b12.jpg,Judgeindirect,blacksquare2.gif,pic30.bmp,Mask.bmp,0121416,12:27:42,4.0.9.0,106,whiteindirect,4,25,1125,minus1,0,w04.bmp,Judgeindirect,blacksquare2.gif,pic9.bmp,Mask.bmp,0121416,12:27:42,4.0.9.0,106,neutral,4,26,1257,minus1,0,GREY.bmp,Judgeindirect,blacksquare2.gif,pic67.bmp,Mask.bmp,0121416,12:27:42,4.0.9.0,106,blackindirect,4,27,2127,minus1,0,b11.bmp,Judgeindirect,blacksquare2.gif,pic52.bmp,Mask.bmp,0121416,12:27:42,4.0.9.0,106,whiteindirect,4,28,1552,plus2,0,w09.bmp,Judgeindirect,blacksquare2.gif,pic14.bmp,Mask.bmp,0121416,12:27:42,4.0.9.0,106,neutral,4,29,1447,minus1,0,GREY.bmp,Judgeindirect,blacksquare2.gif,pic32.bmp,Mask.bmp,0121416,12:27:42,4.0.9.0,106,blackindirect,4,30,3824,minus1,0,b03.bmp,Judgeindirect,blacksquare2.gif,pic22.bmp,Mask.bmp,0121416,12:27:42,4.0.9.0,106,neutral,4,31,1605,minus2,0,GREY.bmp,Judgeindirect,blacksquare2.gif,pic24.bmp,Mask.bmp,0121416,12:27:42,4.0.9.0,106,whiteindirect,4,32,1122,minus1,0,b11.jpg,Judgeindirect,blacksquare2.gif,pic38.bmp,Mask.bmp,0121416,12:27:42,4.0.9.0,106,neutral,4,33,1035,plus1,0,GREY.bmp,Judgeindirect,blacksquare2.gif,pic12.bmp,Mask.bmp,0121416,12:27:42,4.0.9.0,106,blackindirect,4,34,803,plus1,0,b05.bmp,Judgeindirect,blacksquare2.gif,pic2.bmp,Mask.bmp,0121416,12:27:42,4.0.9.0,106,whiteindirect,4,35,912,minus1,0,w08.bmp,Judgeindirect,blacksquare2.gif,pic64.bmp,Mask.bmp,0121416,12:27:42,4.0.9.0,106,blackindirect,4,36,1511,plus1,0,b01.bmp,Judgeindirect,blacksquare2.gif,pic31.bmp,Mask.bmp,0121416,12:27:42,4.0.9.0,106,blackindirect,4,37,1062,plus1,0,b07.bmp,Judgeindirect,blacksquare2.gif,pic57.bmp,Mask.bmp,0121416,12:27:42,4.0.9.0,106,blackindirect,4,38,1500,minus1,0,b04.bmp,Judgeindirect,blacksquare2.gif,pic40.bmp,Mask.bmp,0121416,12:27:42,4.0.9.0,106,whiteindirect,4,39,1553,minus1,0,b12.jpg,Judgeindirect,blacksquare2.gif,pic73.bmp,Mask.bmp,0121416,12:27:42,4.0.9.0,106,blackindirect,4,40,1589,plus2,0,b02.bmp,Judgeindirect,blacksquare2.gif,pic37.bmp,Mask.bmp,0121416,12:27:42,4.0.9.0,106,neutral,4,41,971,plus1,0,GREY.bmp,Judgeindirect,blacksquare2.gif,pic15.bmp,Mask.bmp,0121416,12:27:42,4.0.9.0,106,neutral,4,42,2408,plus1,0,GREY.bmp,Judgeindirect,blacksquare2.gif,pic7.bmp,Mask.bmp,0121416,12:27:42,4.0.9.0,106,blackindirect,4,43,863,plus1,0,b08.bmp,Judgeindirect,blacksquare2.gif,pic4.bmp,Mask.bmp,0121416,12:27:42,4.0.9.0,106,neutral,4,44,1098,plus2,0,GREY.bmp,Judgeindirect,blacksquare2.gif,pic56.bmp,Mask.bmp,0121416,12:27:42,4.0.9.0,106,blackindirect,4,45,1349,plus2,0,b02.bmp,Judgeindirect,blacksquare2.gif,pic27.bmp,Mask.bmp,0121416,12:27:42,4.0.9.0,106,blackindirect,4,46,2610,plus2,0,b10.bmp,Judgeindirect,blacksquare2.gif,pic41.bmp,Mask.bmp,0121416,12:27:42,4.0.9.0,106,whiteindirect,4,47,1531,minus1,0,w04.bmp,Judgeindirect,blacksquare2.gif,pic75.bmp,Mask.bmp,0121416,12:27:42,4.0.9.0,106,blackindirect,4,48,1241,plus1,0,b06.bmp,Judgeindirect,blacksquare2.gif,pic28.bmp,Mask.bmp,0121416,12:27:42,4.0.9.0,106,blackindirect,4,49,1179,plus2,0,b05.bmp,Judgeindirect,blacksquare2.gif,pic53.bmp,Mask.bmp,0121416,12:27:42,4.0.9.0,106,whiteindirect,4,50,1380,minus1,0,w06.bmp,Judgeindirect,blacksquare2.gif,pic72.bmp,Mask.bmp,0121416,12:27:42,4.0.9.0,106,neutral,4,51,1120,minus2,0,GREY.bmp,Judgeindirect,blacksquare2.gif,pic42.bmp,Mask.bmp,0121416,12:27:42,4.0.9.0,106,neutral,4,52,1229,plus2,0,GREY.bmp,Judgeindirect,blacksquare2.gif,pic49.bmp,Mask.bmp,0121416,12:27:42,4.0.9.0,106,blackindirect,4,53,1446,plus1,0,b07.bmp,Judgeindirect,blacksquare2.gif,pic60.bmp,Mask.bmp,0121416,12:27:42,4.0.9.0,106,neutral,4,54,2024,minus1,0,GREY.bmp,Judgeindirect,blacksquare2.gif,pic68.bmp,Mask.bmp,0121416,12:27:42,4.0.9.0,106,whiteindirect,4,55,1016,plus2,0,b10.jpg,Judgeindirect,blacksquare2.gif,pic65.bmp,Mask.bmp,0121416,12:27:42,4.0.9.0,106,neutral,4,56,1193,plus1,0,GREY.bmp,Judgeindirect,blacksquare2.gif,pic54.bmp,Mask.bmp,0121416,12:27:42,4.0.9.0,106,blackindirect,4,57,1214,minus1,0,b11.bmp,Judgeindirect,blacksquare2.gif,pic70.bmp,Mask.bmp,0121416,12:27:42,4.0.9.0,106,whiteindirect,4,58,651,plus1,0,w03.bmp,Judgeindirect,blacksquare2.gif,pic5.bmp,Mask.bmp,0121416,12:27:42,4.0.9.0,106,whiteindirect,4,59,431,plus2,0,w02.bmp,Judgeindirect,blacksquare2.gif,pic59.bmp,Mask.bmp,0121416,12:27:42,4.0.9.0,106,whiteindirect,4,60,1644,plus1,0,w01.bmp,Judgeindirect,blacksquare2.gif,pic3.bmp,Mask.bmp,0121416,12:27:42,4.0.9.0,106,whiteindirect,4,61,1313,minus2,0,w05.bmp,Judgeindirect,blacksquare2.gif,pic63.bmp,Mask.bmp,0121416,12:27:42,4.0.9.0,106,blackindirect,4,62,2089,plus1,0,b01.bmp,Judgeindirect,blacksquare2.gif,pic61.bmp,Mask.bmp,0121416,12:27:42,4.0.9.0,106,neutral,4,63,1156,minus1,0,GREY.bmp,Judgeindirect,blacksquare2.gif,pic66.bmp,Mask.bmp,0121416,12:27:42,4.0.9.0,106,blackindirect,4,64,1156,plus1,0,b04.bmp,Judgeindirect,blacksquare2.gif,pic21.bmp,Mask.bmp,0121416,12:27:42,4.0.9.0,106,blackindirect,4,65,1112,plus2,0,b03.bmp,Judgeindirect,blacksquare2.gif,pic18.bmp,Mask.bmp,0121416,12:27:42,4.0.9.0,106,neutral,4,66,813,plus1,0,GREY.bmp,Judgeindirect,blacksquare2.gif,pic45.bmp,Mask.bmp,0121416,12:27:42,4.0.9.0,106,whiteindirect,4,67,1206,minus2,0,w07.bmp,Judgeindirect,blacksquare2.gif,pic74.bmp,Mask.bmp,0121416,12:27:42,4.0.9.0,106,neutral,4,68,1723,plus1,0,GREY.bmp,Judgeindirect,blacksquare2.gif,pic20.bmp,Mask.bmp,0121416,12:27:42,4.0.9.0,106,neutral,4,69,906,minus1,0,GREY.bmp,Judgeindirect,blacksquare2.gif,pic69.bmp,Mask.bmp,0121416,12:27:42,4.0.9.0,106,blackindirect,4,70,1286,minus1,0,b12.bmp,Judgeindirect,blacksquare2.gif,pic44.bmp,Mask.bmp,0121416,12:27:42,4.0.9.0,106,blackindirect,4,71,1524,plus1,0,b09.bmp,Judgeindirect,blacksquare2.gif,pic36.bmp,Mask.bmp,0121416,12:27:42,4.0.9.0,106,neutral,4,72,1124,minus1,0,GREY.bmp,Judgeindirect,blacksquare2.gif,pic62.bmp,Mask.bmp,0121416,12:27:42,4.0.9.0,106,blackdirect,6,1,3147,minus1,0,b05.bmp,Judgedirect,blacksquare2.gif,pic79.bmp,Mask.bmp,0121416,12:27:42,4.0.9.0,106,whitedirect,6,2,936,minus1,0,w01.bmp,Judgedirect,blacksquare2.gif,pic102.bmp,Mask.bmp,0121416,12:27:42,4.0.9.0,106,blackdirect,6,3,1359,plus1,0,b03.bmp,Judgedirect,blacksquare2.gif,pic105.bmp,Mask.bmp,0121416,12:27:42,4.0.9.0,106,whitedirect,6,4,996,minus2,0,w06.bmp,Judgedirect,blacksquare2.gif,pic100.bmp,Mask.bmp,0121416,12:27:42,4.0.9.0,106,blackdirect,6,5,1697,minus1,0,b09.bmp,Judgedirect,blacksquare2.gif,pic117.bmp,Mask.bmp,0121416,12:27:42,4.0.9.0,106,whitedirect,6,6,1381,plus1,0,b10.jpg,Judgedirect,blacksquare2.gif,pic113.bmp,Mask.bmp,0121416,12:27:42,4.0.9.0,106,blackdirect,6,7,2408,minus1,0,b07.bmp,Judgedirect,blacksquare2.gif,pic101.bmp,Mask.bmp,0121416,12:27:42,4.0.9.0,106,whitedirect,6,8,973,minus2,0,w03.bmp,Judgedirect,blacksquare2.gif,pic78.bmp,Mask.bmp,0121416,12:27:42,4.0.9.0,106,blackdirect,6,9,1232,minus1,0,b06.bmp,Judgedirect,blacksquare2.gif,pic81.bmp,Mask.bmp,0121416,12:27:42,4.0.9.0,106,whitedirect,6,10,1651,minus2,0,w08.bmp,Judgedirect,blacksquare2.gif,pic114.bmp,Mask.bmp,0121416,12:27:42,4.0.9.0,106,blackdirect,6,11,1369,plus1,0,b02.bmp,Judgedirect,blacksquare2.gif,pic108.bmp,Mask.bmp,0121416,12:27:42,4.0.9.0,106,whitedirect,6,12,1250,minus1,0,b12.jpg,Judgedirect,blacksquare2.gif,pic107.bmp,Mask.bmp,0121416,12:27:42,4.0.9.0,106,blackdirect,6,13,834,plus1,0,b08.bmp,Judgedirect,blacksquare2.gif,pic104.bmp,Mask.bmp,0121416,12:27:42,4.0.9.0,106,whitedirect,6,14,1576,plus1,0,w02.bmp,Judgedirect,blacksquare2.gif,pic82.bmp,Mask.bmp,0121416,12:27:42,4.0.9.0,106,blackdirect,6,15,897,minus1,0,b04.bmp,Judgedirect,blacksquare2.gif,pic118.bmp,Mask.bmp,0121416,12:27:42,4.0.9.0,106,whitedirect,6,16,1491,minus1,0,b11.jpg,Judgedirect,blacksquare2.gif,pic116.bmp,Mask.bmp,0121416,12:27:42,4.0.9.0,106,blackdirect,6,17,1834,plus2,0,b10.bmp,Judgedirect,blacksquare2.gif,pic111.bmp,Mask.bmp,0121416,12:27:42,4.0.9.0,106,whitedirect,6,18,475,plus2,0,w05.bmp,Judgedirect,blacksquare2.gif,pic109.bmp,Mask.bmp,0121416,12:27:42,4.0.9.0,106,blackdirect,6,19,1038,minus1,0,b01.bmp,Judgedirect,blacksquare2.gif,pic115.bmp,Mask.bmp,0121416,12:27:42,4.0.9.0,106,whitedirect,6,20,1339,minus1,0,w07.bmp,Judgedirect,blacksquare2.gif,pic112.bmp,Mask.bmp,0121416,12:27:42,4.0.9.0,106,blackdirect,6,21,938,plus1,0,b12.bmp,Judgedirect,blacksquare2.gif,pic80.bmp,Mask.bmp,0121416,12:27:42,4.0.9.0,106,whitedirect,6,22,1012,minus1,0,w09.bmp,Judgedirect,blacksquare2.gif,pic106.bmp,Mask.bmp,0121416,12:27:42,4.0.9.0,106,blackdirect,6,23,911,minus1,0,b11.bmp,Judgedirect,blacksquare2.gif,pic110.bmp,Mask.bmp,0121416,12:27:42,4.0.9.0,106,whitedirect,6,24,975,minus2,0,w04.bmp,Judgedirect,blacksquare2.gif,pic103.bmp,Mask.bmp,0121416,12:27:42,4.0.9.0,106,sesso,7,1,13005,2,1,0,demo,0,0,0,0121416,12:27:42,4.0.9.0,106,anni,7,1,13005,21,1,0,demo,0,0,0,0121416,12:27:42,4.0.9.0,106,etnia,7,1,13005,Caucasico,1,0,demo,0,0,0,0121416,12:31:42,4.0.9.0,107,practice,1,1,3021,57,1,sample.bmp,orient1,blacksquare2.gif,pic76.bmp,Mask.bmp,0121416,12:31:42,4.0.9.0,107,blackindirect,4,1,5192,plus1,0,b06.bmp,Judgeindirect,blacksquare2.gif,pic46.bmp,Mask.bmp,0121416,12:31:42,4.0.9.0,107,whiteindirect,4,2,3952,plus1,0,w09.bmp,Judgeindirect,blacksquare2.gif,pic36.bmp,Mask.bmp,0121416,12:31:42,4.0.9.0,107,blackindirect,4,3,912,plus1,0,b02.bmp,Judgeindirect,blacksquare2.gif,pic5.bmp,Mask.bmp,0121416,12:31:42,4.0.9.0,107,neutral,4,4,2788,plus2,0,GREY.bmp,Judgeindirect,blacksquare2.gif,pic72.bmp,Mask.bmp,0121416,12:31:42,4.0.9.0,107,blackindirect,4,5,2119,plus2,0,b11.bmp,Judgeindirect,blacksquare2.gif,pic59.bmp,Mask.bmp,0121416,12:31:42,4.0.9.0,107,neutral,4,6,2007,plus2,0,GREY.bmp,Judgeindirect,blacksquare2.gif,pic55.bmp,Mask.bmp,0121416,12:31:42,4.0.9.0,107,whiteindirect,4,7,2733,plus1,0,b10.jpg,Judgeindirect,blacksquare2.gif,pic44.bmp,Mask.bmp,0121416,12:31:42,4.0.9.0,107,blackindirect,4,8,1225,plus1,0,b01.bmp,Judgeindirect,blacksquare2.gif,pic14.bmp,Mask.bmp,0121416,12:31:42,4.0.9.0,107,neutral,4,9,1529,plus2,0,GREY.bmp,Judgeindirect,blacksquare2.gif,pic38.bmp,Mask.bmp,0121416,12:31:42,4.0.9.0,107,whiteindirect,4,10,2542,plus1,0,w07.bmp,Judgeindirect,blacksquare2.gif,pic22.bmp,Mask.bmp,0121416,12:31:42,4.0.9.0,107,whiteindirect,4,11,1105,plus1,0,w06.bmp,Judgeindirect,blacksquare2.gif,pic70.bmp,Mask.bmp,0121416,12:31:42,4.0.9.0,107,whiteindirect,4,12,1558,plus2,0,b11.jpg,Judgeindirect,blacksquare2.gif,pic47.bmp,Mask.bmp,0121416,12:31:42,4.0.9.0,107,whiteindirect,4,13,551,plus2,0,w04.bmp,Judgeindirect,blacksquare2.gif,pic62.bmp,Mask.bmp,0121416,12:31:42,4.0.9.0,107,neutral,4,14,850,plus2,0,GREY.bmp,Judgeindirect,blacksquare2.gif,pic58.bmp,Mask.bmp,0121416,12:31:42,4.0.9.0,107,blackindirect,4,15,1175,plus1,0,b10.bmp,Judgeindirect,blacksquare2.gif,pic18.bmp,Mask.bmp,0121416,12:31:42,4.0.9.0,107,blackindirect,4,16,581,plus1,0,b09.bmp,Judgeindirect,blacksquare2.gif,pic75.bmp,Mask.bmp,0121416,12:31:42,4.0.9.0,107,blackindirect,4,17,1011,plus2,0,b03.bmp,Judgeindirect,blacksquare2.gif,pic11.bmp,Mask.bmp,0121416,12:31:42,4.0.9.0,107,neutral,4,18,623,plus2,0,GREY.bmp,Judgeindirect,blacksquare2.gif,pic25.bmp,Mask.bmp,0121416,12:31:42,4.0.9.0,107,whiteindirect,4,19,865,plus2,0,w03.bmp,Judgeindirect,blacksquare2.gif,pic24.bmp,Mask.bmp,0121416,12:31:42,4.0.9.0,107,neutral,4,20,1114,plus2,0,GREY.bmp,Judgeindirect,blacksquare2.gif,pic17.bmp,Mask.bmp,0121416,12:31:42,4.0.9.0,107,whiteindirect,4,21,1229,plus1,0,w05.bmp,Judgeindirect,blacksquare2.gif,pic45.bmp,Mask.bmp,0121416,12:31:42,4.0.9.0,107,blackindirect,4,22,743,plus2,0,b07.bmp,Judgeindirect,blacksquare2.gif,pic64.bmp,Mask.bmp,0121416,12:31:42,4.0.9.0,107,whiteindirect,4,23,374,plus2,0,w08.bmp,Judgeindirect,blacksquare2.gif,pic15.bmp,Mask.bmp,0121416,12:31:42,4.0.9.0,107,whiteindirect,4,24,392,plus2,0,w01.bmp,Judgeindirect,blacksquare2.gif,pic53.bmp,Mask.bmp,0121416,12:31:42,4.0.9.0,107,blackindirect,4,25,314,plus2,0,b12.bmp,Judgeindirect,blacksquare2.gif,pic33.bmp,Mask.bmp,0121416,12:31:42,4.0.9.0,107,whiteindirect,4,26,1428,plus1,0,w02.bmp,Judgeindirect,blacksquare2.gif,pic37.bmp,Mask.bmp,0121416,12:31:42,4.0.9.0,107,blackindirect,4,27,1838,plus1,0,b08.bmp,Judgeindirect,blacksquare2.gif,pic67.bmp,Mask.bmp,0121416,12:31:42,4.0.9.0,107,blackindirect,4,28,834,minus1,0,b04.bmp,Judgeindirect,blacksquare2.gif,pic41.bmp,Mask.bmp,0121416,12:31:42,4.0.9.0,107,blackindirect,4,29,1284,plus1,0,b05.bmp,Judgeindirect,blacksquare2.gif,pic51.bmp,Mask.bmp,0121416,12:31:42,4.0.9.0,107,neutral,4,30,2184,minus1,0,GREY.bmp,Judgeindirect,blacksquare2.gif,pic56.bmp,Mask.bmp,0121416,12:31:42,4.0.9.0,107,neutral,4,31,1186,plus2,0,GREY.bmp,Judgeindirect,blacksquare2.gif,pic52.bmp,Mask.bmp,0121416,12:31:42,4.0.9.0,107,neutral,4,32,397,plus2,0,GREY.bmp,Judgeindirect,blacksquare2.gif,pic66.bmp,Mask.bmp,0121416,12:31:42,4.0.9.0,107,whiteindirect,4,33,1327,plus1,0,b12.jpg,Judgeindirect,blacksquare2.gif,pic73.bmp,Mask.bmp,0121416,12:31:42,4.0.9.0,107,blackindirect,4,34,1492,plus1,0,b01.bmp,Judgeindirect,blacksquare2.gif,pic20.bmp,Mask.bmp,0121416,12:31:42,4.0.9.0,107,whiteindirect,4,35,2023,plus2,0,w02.bmp,Judgeindirect,blacksquare2.gif,pic61.bmp,Mask.bmp,0121416,12:31:42,4.0.9.0,107,whiteindirect,4,36,661,plus2,0,w07.bmp,Judgeindirect,blacksquare2.gif,pic1.bmp,Mask.bmp,0121416,12:31:42,4.0.9.0,107,blackindirect,4,37,1829,plus1,0,b11.bmp,Judgeindirect,blacksquare2.gif,pic3.bmp,Mask.bmp,0121416,12:31:42,4.0.9.0,107,blackindirect,4,38,1385,plus1,0,b12.bmp,Judgeindirect,blacksquare2.gif,pic27.bmp,Mask.bmp,0121416,12:31:42,4.0.9.0,107,whiteindirect,4,39,979,plus1,0,w05.bmp,Judgeindirect,blacksquare2.gif,pic8.bmp,Mask.bmp,0121416,12:31:42,4.0.9.0,107,blackindirect,4,40,1010,plus1,0,b08.bmp,Judgeindirect,blacksquare2.gif,pic7.bmp,Mask.bmp,0121416,12:31:42,4.0.9.0,107,neutral,4,41,1225,plus2,0,GREY.bmp,Judgeindirect,blacksquare2.gif,pic31.bmp,Mask.bmp,0121416,12:31:42,4.0.9.0,107,whiteindirect,4,42,620,plus2,0,w01.bmp,Judgeindirect,blacksquare2.gif,pic28.bmp,Mask.bmp,0121416,12:31:42,4.0.9.0,107,neutral,4,43,1069,plus2,0,GREY.bmp,Judgeindirect,blacksquare2.gif,pic68.bmp,Mask.bmp,0121416,12:31:42,4.0.9.0,107,blackindirect,4,44,723,plus2,0,b07.bmp,Judgeindirect,blacksquare2.gif,pic48.bmp,Mask.bmp,0121416,12:31:42,4.0.9.0,107,blackindirect,4,45,875,plus1,0,b10.bmp,Judgeindirect,blacksquare2.gif,pic4.bmp,Mask.bmp,0121416,12:31:42,4.0.9.0,107,neutral,4,46,1845,minus1,0,GREY.bmp,Judgeindirect,blacksquare2.gif,pic49.bmp,Mask.bmp,0121416,12:31:42,4.0.9.0,107,neutral,4,47,1938,minus1,0,GREY.bmp,Judgeindirect,blacksquare2.gif,pic69.bmp,Mask.bmp,0121416,12:31:42,4.0.9.0,107,blackindirect,4,48,1872,plus1,0,b06.bmp,Judgeindirect,blacksquare2.gif,pic12.bmp,Mask.bmp,0121416,12:31:42,4.0.9.0,107,whiteindirect,4,49,1075,plus1,0,b10.jpg,Judgeindirect,blacksquare2.gif,pic9.bmp,Mask.bmp,0121416,12:31:42,4.0.9.0,107,whiteindirect,4,50,1718,plus1,0,b11.jpg,Judgeindirect,blacksquare2.gif,pic21.bmp,Mask.bmp,0121416,12:31:42,4.0.9.0,107,neutral,4,51,1049,plus2,0,GREY.bmp,Judgeindirect,blacksquare2.gif,pic74.bmp,Mask.bmp,0121416,12:31:42,4.0.9.0,107,neutral,4,52,650,plus2,0,GREY.bmp,Judgeindirect,blacksquare2.gif,pic43.bmp,Mask.bmp,0121416,12:31:42,4.0.9.0,107,neutral,4,53,750,plus2,0,GREY.bmp,Judgeindirect,blacksquare2.gif,pic26.bmp,Mask.bmp,0121416,12:31:42,4.0.9.0,107,neutral,4,54,987,plus2,0,GREY.bmp,Judgeindirect,blacksquare2.gif,pic71.bmp,Mask.bmp,0121416,12:31:42,4.0.9.0,107,neutral,4,55,458,plus2,0,GREY.bmp,Judgeindirect,blacksquare2.gif,pic29.bmp,Mask.bmp,0121416,12:31:42,4.0.9.0,107,neutral,4,56,382,plus2,0,GREY.bmp,Judgeindirect,blacksquare2.gif,pic10.bmp,Mask.bmp,0121416,12:31:42,4.0.9.0,107,blackindirect,4,57,1520,plus2,0,b05.bmp,Judgeindirect,blacksquare2.gif,pic34.bmp,Mask.bmp,0121416,12:31:42,4.0.9.0,107,neutral,4,58,556,plus2,0,GREY.bmp,Judgeindirect,blacksquare2.gif,pic30.bmp,Mask.bmp,0121416,12:31:42,4.0.9.0,107,whiteindirect,4,59,1496,plus1,0,w06.bmp,Judgeindirect,blacksquare2.gif,pic57.bmp,Mask.bmp,0121416,12:31:42,4.0.9.0,107,whiteindirect,4,60,1554,plus1,0,w03.bmp,Judgeindirect,blacksquare2.gif,pic65.bmp,Mask.bmp,0121416,12:31:42,4.0.9.0,107,blackindirect,4,61,814,plus2,0,b04.bmp,Judgeindirect,blacksquare2.gif,pic40.bmp,Mask.bmp,0121416,12:31:42,4.0.9.0,107,whiteindirect,4,62,1327,plus2,0,b12.jpg,Judgeindirect,blacksquare2.gif,pic63.bmp,Mask.bmp,0121416,12:31:42,4.0.9.0,107,neutral,4,63,712,plus2,0,GREY.bmp,Judgeindirect,blacksquare2.gif,pic39.bmp,Mask.bmp,0121416,12:31:42,4.0.9.0,107,whiteindirect,4,64,1474,minus1,0,w04.bmp,Judgeindirect,blacksquare2.gif,pic13.bmp,Mask.bmp,0121416,12:31:42,4.0.9.0,107,blackindirect,4,65,847,minus1,0,b02.bmp,Judgeindirect,blacksquare2.gif,pic23.bmp,Mask.bmp,0121416,12:31:42,4.0.9.0,107,whiteindirect,4,66,2118,plus1,0,w08.bmp,Judgeindirect,blacksquare2.gif,pic54.bmp,Mask.bmp,0121416,12:31:42,4.0.9.0,107,blackindirect,4,67,456,plus1,0,b09.bmp,Judgeindirect,blacksquare2.gif,pic32.bmp,Mask.bmp,0121416,12:31:42,4.0.9.0,107,neutral,4,68,1577,minus1,0,GREY.bmp,Judgeindirect,blacksquare2.gif,pic50.bmp,Mask.bmp,0121416,12:31:42,4.0.9.0,107,neutral,4,69,1759,plus2,0,GREY.bmp,Judgeindirect,blacksquare2.gif,pic60.bmp,Mask.bmp,0121416,12:31:42,4.0.9.0,107,whiteindirect,4,70,977,minus1,0,w09.bmp,Judgeindirect,blacksquare2.gif,pic16.bmp,Mask.bmp,0121416,12:31:42,4.0.9.0,107,neutral,4,71,948,plus1,0,GREY.bmp,Judgeindirect,blacksquare2.gif,pic2.bmp,Mask.bmp,0121416,12:31:42,4.0.9.0,107,blackindirect,4,72,2060,plus1,0,b03.bmp,Judgeindirect,blacksquare2.gif,pic6.bmp,Mask.bmp,0121416,12:31:42,4.0.9.0,107,blackdirect,6,1,4248,plus1,0,b04.bmp,Judgedirect,blacksquare2.gif,pic109.bmp,Mask.bmp,0121416,12:31:42,4.0.9.0,107,whitedirect,6,2,839,plus1,0,w06.bmp,Judgedirect,blacksquare2.gif,pic112.bmp,Mask.bmp,0121416,12:31:42,4.0.9.0,107,blackdirect,6,3,1311,plus1,0,b06.bmp,Judgedirect,blacksquare2.gif,pic107.bmp,Mask.bmp,0121416,12:31:42,4.0.9.0,107,whitedirect,6,4,1028,minus1,0,b10.jpg,Judgedirect,blacksquare2.gif,pic82.bmp,Mask.bmp,0121416,12:31:42,4.0.9.0,107,blackdirect,6,5,406,minus1,0,b01.bmp,Judgedirect,blacksquare2.gif,pic78.bmp,Mask.bmp,0121416,12:31:42,4.0.9.0,107,whitedirect,6,6,1290,plus1,0,b11.jpg,Judgedirect,blacksquare2.gif,pic81.bmp,Mask.bmp,0121416,12:31:42,4.0.9.0,107,blackdirect,6,7,1339,minus1,0,b05.bmp,Judgedirect,blacksquare2.gif,pic118.bmp,Mask.bmp,0121416,12:31:42,4.0.9.0,107,whitedirect,6,8,728,minus1,0,w03.bmp,Judgedirect,blacksquare2.gif,pic116.bmp,Mask.bmp,0121416,12:31:42,4.0.9.0,107,blackdirect,6,9,1107,plus1,0,b10.bmp,Judgedirect,blacksquare2.gif,pic106.bmp,Mask.bmp,0121416,12:31:42,4.0.9.0,107,whitedirect,6,10,1371,minus1,0,w05.bmp,Judgedirect,blacksquare2.gif,pic102.bmp,Mask.bmp,0121416,12:31:42,4.0.9.0,107,blackdirect,6,11,1684,minus1,0,b12.bmp,Judgedirect,blacksquare2.gif,pic101.bmp,Mask.bmp,0121416,12:31:42,4.0.9.0,107,whitedirect,6,12,840,plus1,0,w07.bmp,Judgedirect,blacksquare2.gif,pic117.bmp,Mask.bmp,0121416,12:31:42,4.0.9.0,107,blackdirect,6,13,1765,minus1,0,b07.bmp,Judgedirect,blacksquare2.gif,pic114.bmp,Mask.bmp,0121416,12:31:42,4.0.9.0,107,whitedirect,6,14,923,plus1,0,w08.bmp,Judgedirect,blacksquare2.gif,pic79.bmp,Mask.bmp,0121416,12:31:42,4.0.9.0,107,blackdirect,6,15,431,plus1,0,b03.bmp,Judgedirect,blacksquare2.gif,pic108.bmp,Mask.bmp,0121416,12:31:42,4.0.9.0,107,whitedirect,6,16,962,plus1,0,w09.bmp,Judgedirect,blacksquare2.gif,pic103.bmp,Mask.bmp,0121416,12:31:42,4.0.9.0,107,blackdirect,6,17,479,plus1,0,b08.bmp,Judgedirect,blacksquare2.gif,pic113.bmp,Mask.bmp,0121416,12:31:42,4.0.9.0,107,whitedirect,6,18,1160,plus1,0,w01.bmp,Judgedirect,blacksquare2.gif,pic110.bmp,Mask.bmp,0121416,12:31:42,4.0.9.0,107,blackdirect,6,19,1076,minus1,0,b11.bmp,Judgedirect,blacksquare2.gif,pic105.bmp,Mask.bmp,0121416,12:31:42,4.0.9.0,107,whitedirect,6,20,780,minus1,0,b12.jpg,Judgedirect,blacksquare2.gif,pic80.bmp,Mask.bmp,0121416,12:31:42,4.0.9.0,107,blackdirect,6,21,1248,plus1,0,b09.bmp,Judgedirect,blacksquare2.gif,pic104.bmp,Mask.bmp,0121416,12:31:42,4.0.9.0,107,whitedirect,6,22,547,plus1,0,w04.bmp,Judgedirect,blacksquare2.gif,pic115.bmp,Mask.bmp,0121416,12:31:42,4.0.9.0,107,blackdirect,6,23,804,minus1,0,b02.bmp,Judgedirect,blacksquare2.gif,pic111.bmp,Mask.bmp,0121416,12:31:42,4.0.9.0,107,whitedirect,6,24,1445,minus1,0,w02.bmp,Judgedirect,blacksquare2.gif,pic100.bmp,Mask.bmp,0121416,12:31:42,4.0.9.0,107,sesso,7,1,14141,2,1,0,demo,0,0,0,0121416,12:31:42,4.0.9.0,107,anni,7,1,14141,20,1,0,demo,0,0,0,0121416,12:31:42,4.0.9.0,107,etnia,7,1,14141,Altro,1,0,demo,0,0,0,0121416,12:38:33,4.0.9.0,108,practice,1,1,4530,57,1,sample.bmp,orient1,blacksquare2.gif,pic76.bmp,Mask.bmp,0121416,12:38:33,4.0.9.0,108,whitedirect,4,1,5912,plus1,0,w08.bmp,Judgedirect,blacksquare2.gif,pic80.bmp,Mask.bmp,0121416,12:38:33,4.0.9.0,108,blackdirect,4,2,1543,plus1,0,b11.bmp,Judgedirect,blacksquare2.gif,pic100.bmp,Mask.bmp,0121416,12:38:33,4.0.9.0,108,whitedirect,4,3,2773,minus1,0,w09.bmp,Judgedirect,blacksquare2.gif,pic108.bmp,Mask.bmp,0121416,12:38:33,4.0.9.0,108,blackdirect,4,4,1463,minus1,0,b02.bmp,Judgedirect,blacksquare2.gif,pic117.bmp,Mask.bmp,0121416,12:38:33,4.0.9.0,108,whitedirect,4,5,954,plus1,0,w06.bmp,Judgedirect,blacksquare2.gif,pic118.bmp,Mask.bmp,0121416,12:38:33,4.0.9.0,108,blackdirect,4,6,1340,minus1,0,b05.bmp,Judgedirect,blacksquare2.gif,pic104.bmp,Mask.bmp,0121416,12:38:33,4.0.9.0,108,whitedirect,4,7,1268,minus1,0,w03.bmp,Judgedirect,blacksquare2.gif,pic102.bmp,Mask.bmp,0121416,12:38:33,4.0.9.0,108,blackdirect,4,8,2444,minus2,0,b10.bmp,Judgedirect,blacksquare2.gif,pic116.bmp,Mask.bmp,0121416,12:38:33,4.0.9.0,108,whitedirect,4,9,1260,minus1,0,b12.jpg,Judgedirect,blacksquare2.gif,pic103.bmp,Mask.bmp,0121416,12:38:33,4.0.9.0,108,blackdirect,4,10,1125,minus1,0,b09.bmp,Judgedirect,blacksquare2.gif,pic78.bmp,Mask.bmp,0121416,12:38:33,4.0.9.0,108,whitedirect,4,11,583,minus1,0,b11.jpg,Judgedirect,blacksquare2.gif,pic115.bmp,Mask.bmp,0121416,12:38:33,4.0.9.0,108,blackdirect,4,12,541,minus1,0,b07.bmp,Judgedirect,blacksquare2.gif,pic111.bmp,Mask.bmp,0121416,12:38:33,4.0.9.0,108,whitedirect,4,13,1781,minus1,0,w04.bmp,Judgedirect,blacksquare2.gif,pic79.bmp,Mask.bmp,0121416,12:38:33,4.0.9.0,108,blackdirect,4,14,1027,minus1,0,b12.bmp,Judgedirect,blacksquare2.gif,pic101.bmp,Mask.bmp,0121416,12:38:33,4.0.9.0,108,whitedirect,4,15,622,minus1,0,w05.bmp,Judgedirect,blacksquare2.gif,pic113.bmp,Mask.bmp,0121416,12:38:33,4.0.9.0,108,blackdirect,4,16,1298,plus1,0,b03.bmp,Judgedirect,blacksquare2.gif,pic114.bmp,Mask.bmp,0121416,12:38:33,4.0.9.0,108,whitedirect,4,17,389,plus1,0,w01.bmp,Judgedirect,blacksquare2.gif,pic110.bmp,Mask.bmp,0121416,12:38:33,4.0.9.0,108,blackdirect,4,18,2066,minus1,0,b01.bmp,Judgedirect,blacksquare2.gif,pic82.bmp,Mask.bmp,0121416,12:38:33,4.0.9.0,108,whitedirect,4,19,734,minus1,0,w02.bmp,Judgedirect,blacksquare2.gif,pic105.bmp,Mask.bmp,0121416,12:38:33,4.0.9.0,108,blackdirect,4,20,1026,minus1,0,b06.bmp,Judgedirect,blacksquare2.gif,pic107.bmp,Mask.bmp,0121416,12:38:33,4.0.9.0,108,whitedirect,4,21,808,minus2,0,w07.bmp,Judgedirect,blacksquare2.gif,pic112.bmp,Mask.bmp,0121416,12:38:33,4.0.9.0,108,blackdirect,4,22,2358,minus1,0,b08.bmp,Judgedirect,blacksquare2.gif,pic109.bmp,Mask.bmp,0121416,12:38:33,4.0.9.0,108,whitedirect,4,23,1095,minus2,0,b10.jpg,Judgedirect,blacksquare2.gif,pic81.bmp,Mask.bmp,0121416,12:38:33,4.0.9.0,108,blackdirect,4,24,1490,minus1,0,b04.bmp,Judgedirect,blacksquare2.gif,pic106.bmp,Mask.bmp,0121416,12:38:33,4.0.9.0,108,whiteindirect,6,1,5832,plus1,0,w08.bmp,Judgeindirect,blacksquare2.gif,pic9.bmp,Mask.bmp,0121416,12:38:33,4.0.9.0,108,neutral,6,2,1226,minus1,0,GREY.bmp,Judgeindirect,blacksquare2.gif,pic62.bmp,Mask.bmp,0121416,12:38:33,4.0.9.0,108,neutral,6,3,662,minus1,0,GREY.bmp,Judgeindirect,blacksquare2.gif,pic14.bmp,Mask.bmp,0121416,12:38:33,4.0.9.0,108,blackindirect,6,4,1498,plus1,0,b05.bmp,Judgeindirect,blacksquare2.gif,pic27.bmp,Mask.bmp,0121416,12:38:33,4.0.9.0,108,blackindirect,6,5,1867,plus1,0,b06.bmp,Judgeindirect,blacksquare2.gif,pic71.bmp,Mask.bmp,0121416,12:38:33,4.0.9.0,108,blackindirect,6,6,1214,plus1,0,b12.bmp,Judgeindirect,blacksquare2.gif,pic31.bmp,Mask.bmp,0121416,12:38:33,4.0.9.0,108,blackindirect,6,7,1129,plus2,0,b03.bmp,Judgeindirect,blacksquare2.gif,pic6.bmp,Mask.bmp,0121416,12:38:33,4.0.9.0,108,blackindirect,6,8,1435,plus1,0,b10.bmp,Judgeindirect,blacksquare2.gif,pic10.bmp,Mask.bmp,0121416,12:38:33,4.0.9.0,108,whiteindirect,6,9,903,minus1,0,b10.jpg,Judgeindirect,blacksquare2.gif,pic61.bmp,Mask.bmp,0121416,12:38:33,4.0.9.0,108,blackindirect,6,10,983,minus2,0,b08.bmp,Judgeindirect,blacksquare2.gif,pic7.bmp,Mask.bmp,0121416,12:38:33,4.0.9.0,108,neutral,6,11,1639,plus2,0,GREY.bmp,Judgeindirect,blacksquare2.gif,pic29.bmp,Mask.bmp,0121416,12:38:33,4.0.9.0,108,neutral,6,12,1041,plus1,0,GREY.bmp,Judgeindirect,blacksquare2.gif,pic28.bmp,Mask.bmp,0121416,12:38:33,4.0.9.0,108,whiteindirect,6,13,1357,plus2,0,b12.jpg,Judgeindirect,blacksquare2.gif,pic46.bmp,Mask.bmp,0121416,12:38:33,4.0.9.0,108,neutral,6,14,1530,minus1,0,GREY.bmp,Judgeindirect,blacksquare2.gif,pic15.bmp,Mask.bmp,0121416,12:38:33,4.0.9.0,108,blackindirect,6,15,1396,minus2,0,b04.bmp,Judgeindirect,blacksquare2.gif,pic49.bmp,Mask.bmp,0121416,12:38:33,4.0.9.0,108,whiteindirect,6,16,844,minus1,0,b11.jpg,Judgeindirect,blacksquare2.gif,pic5.bmp,Mask.bmp,0121416,12:38:33,4.0.9.0,108,whiteindirect,6,17,875,plus1,0,w09.bmp,Judgeindirect,blacksquare2.gif,pic41.bmp,Mask.bmp,0121416,12:38:33,4.0.9.0,108,neutral,6,18,1151,minus1,0,GREY.bmp,Judgeindirect,blacksquare2.gif,pic32.bmp,Mask.bmp,0121416,12:38:33,4.0.9.0,108,whiteindirect,6,19,2097,minus1,0,w05.bmp,Judgeindirect,blacksquare2.gif,pic2.bmp,Mask.bmp,0121416,12:38:33,4.0.9.0,108,blackindirect,6,20,1442,minus2,0,b07.bmp,Judgeindirect,blacksquare2.gif,pic22.bmp,Mask.bmp,0121416,12:38:33,4.0.9.0,108,neutral,6,21,1467,plus1,0,GREY.bmp,Judgeindirect,blacksquare2.gif,pic36.bmp,Mask.bmp,0121416,12:38:33,4.0.9.0,108,neutral,6,22,919,minus1,0,GREY.bmp,Judgeindirect,blacksquare2.gif,pic25.bmp,Mask.bmp,0121416,12:38:33,4.0.9.0,108,neutral,6,23,827,minus1,0,GREY.bmp,Judgeindirect,blacksquare2.gif,pic52.bmp,Mask.bmp,0121416,12:38:33,4.0.9.0,108,whiteindirect,6,24,1099,minus2,0,w04.bmp,Judgeindirect,blacksquare2.gif,pic34.bmp,Mask.bmp,0121416,12:38:33,4.0.9.0,108,blackindirect,6,25,829,minus1,0,b11.bmp,Judgeindirect,blacksquare2.gif,pic47.bmp,Mask.bmp,0121416,12:38:33,4.0.9.0,108,blackindirect,6,26,845,minus2,0,b02.bmp,Judgeindirect,blacksquare2.gif,pic66.bmp,Mask.bmp,0121416,12:38:33,4.0.9.0,108,neutral,6,27,932,plus1,0,GREY.bmp,Judgeindirect,blacksquare2.gif,pic16.bmp,Mask.bmp,0121416,12:38:33,4.0.9.0,108,neutral,6,28,1120,minus1,0,GREY.bmp,Judgeindirect,blacksquare2.gif,pic58.bmp,Mask.bmp,0121416,12:38:33,4.0.9.0,108,whiteindirect,6,29,992,minus2,0,w06.bmp,Judgeindirect,blacksquare2.gif,pic13.bmp,Mask.bmp,0121416,12:38:33,4.0.9.0,108,whiteindirect,6,30,751,plus1,0,w03.bmp,Judgeindirect,blacksquare2.gif,pic40.bmp,Mask.bmp,0121416,12:38:33,4.0.9.0,108,whiteindirect,6,31,384,plus1,0,w01.bmp,Judgeindirect,blacksquare2.gif,pic68.bmp,Mask.bmp,0121416,12:38:33,4.0.9.0,108,whiteindirect,6,32,434,plus1,0,w07.bmp,Judgeindirect,blacksquare2.gif,pic12.bmp,Mask.bmp,0121416,12:38:33,4.0.9.0,108,blackindirect,6,33,649,minus1,0,b01.bmp,Judgeindirect,blacksquare2.gif,pic44.bmp,Mask.bmp,0121416,12:38:33,4.0.9.0,108,neutral,6,34,895,minus1,0,GREY.bmp,Judgeindirect,blacksquare2.gif,pic24.bmp,Mask.bmp,0121416,12:38:33,4.0.9.0,108,whiteindirect,6,35,768,minus2,0,w02.bmp,Judgeindirect,blacksquare2.gif,pic20.bmp,Mask.bmp,0