date,time,build,subject,trialcode,blocknum,trialnum,latency,response,correct,stimulus1,blockcode,stimulusitem2,stimulusitem3,stimulusitem4,stimulusitem5112116,15:41,3.0.6.0,1,practice,1,1,3210,57,1,sample.bmp,orient1,blacksquare2.gif,pic76.bmp,Mask.bmp,0112116,15:41,3.0.6.0,1,whitedirect,4,1,10499,plus1,0,w07.bmp,Judgedirect,blacksquare2.gif,pic80.bmp,Mask.bmp,0112116,15:41,3.0.6.0,1,blackdirect,4,2,3502,minus1,0,b08.bmp,Judgedirect,blacksquare2.gif,pic117.bmp,Mask.bmp,0112116,15:41,3.0.6.0,1,whitedirect,4,3,749,minus1,0,b12.jpg,Judgedirect,blacksquare2.gif,pic82.bmp,Mask.bmp,0112116,15:41,3.0.6.0,1,blackdirect,4,4,924,plus1,0,b07.bmp,Judgedirect,blacksquare2.gif,pic79.bmp,Mask.bmp,0112116,15:41,3.0.6.0,1,whitedirect,4,5,733,plus1,0,w06.bmp,Judgedirect,blacksquare2.gif,pic116.bmp,Mask.bmp,0112116,15:41,3.0.6.0,1,blackdirect,4,6,960,plus1,0,b11.bmp,Judgedirect,blacksquare2.gif,pic118.bmp,Mask.bmp,0112116,15:41,3.0.6.0,1,whitedirect,4,7,1017,minus1,0,w03.bmp,Judgedirect,blacksquare2.gif,pic114.bmp,Mask.bmp,0112116,15:41,3.0.6.0,1,blackdirect,4,8,980,minus1,0,b01.bmp,Judgedirect,blacksquare2.gif,pic110.bmp,Mask.bmp,0112116,15:41,3.0.6.0,1,whitedirect,4,9,736,minus1,0,b10.jpg,Judgedirect,blacksquare2.gif,pic111.bmp,Mask.bmp,0112116,15:41,3.0.6.0,1,blackdirect,4,10,1643,plus1,0,b12.bmp,Judgedirect,blacksquare2.gif,pic100.bmp,Mask.bmp,0112116,15:41,3.0.6.0,1,whitedirect,4,11,1163,minus1,0,w04.bmp,Judgedirect,blacksquare2.gif,pic78.bmp,Mask.bmp,0112116,15:41,3.0.6.0,1,blackdirect,4,12,819,plus1,0,b06.bmp,Judgedirect,blacksquare2.gif,pic115.bmp,Mask.bmp,0112116,15:41,3.0.6.0,1,whitedirect,4,13,663,plus1,0,w08.bmp,Judgedirect,blacksquare2.gif,pic108.bmp,Mask.bmp,0112116,15:41,3.0.6.0,1,blackdirect,4,14,1003,plus1,0,b02.bmp,Judgedirect,blacksquare2.gif,pic81.bmp,Mask.bmp,0112116,15:41,3.0.6.0,1,whitedirect,4,15,1003,minus1,0,b11.jpg,Judgedirect,blacksquare2.gif,pic107.bmp,Mask.bmp,0112116,15:41,3.0.6.0,1,blackdirect,4,16,700,plus1,0,b03.bmp,Judgedirect,blacksquare2.gif,pic102.bmp,Mask.bmp,0112116,15:41,3.0.6.0,1,whitedirect,4,17,1552,plus1,0,w01.bmp,Judgedirect,blacksquare2.gif,pic104.bmp,Mask.bmp,0112116,15:41,3.0.6.0,1,blackdirect,4,18,877,plus1,0,b05.bmp,Judgedirect,blacksquare2.gif,pic109.bmp,Mask.bmp,0112116,15:41,3.0.6.0,1,whitedirect,4,19,1003,minus1,0,w05.bmp,Judgedirect,blacksquare2.gif,pic112.bmp,Mask.bmp,0112116,15:41,3.0.6.0,1,blackdirect,4,20,796,minus1,0,b04.bmp,Judgedirect,blacksquare2.gif,pic106.bmp,Mask.bmp,0112116,15:41,3.0.6.0,1,whitedirect,4,21,954,plus1,0,w09.bmp,Judgedirect,blacksquare2.gif,pic105.bmp,Mask.bmp,0112116,15:41,3.0.6.0,1,blackdirect,4,22,1208,plus1,0,b09.bmp,Judgedirect,blacksquare2.gif,pic101.bmp,Mask.bmp,0112116,15:41,3.0.6.0,1,whitedirect,4,23,888,minus1,0,w02.bmp,Judgedirect,blacksquare2.gif,pic113.bmp,Mask.bmp,0112116,15:41,3.0.6.0,1,blackdirect,4,24,697,plus1,0,b10.bmp,Judgedirect,blacksquare2.gif,pic103.bmp,Mask.bmp,0112116,15:41,3.0.6.0,1,neutral,6,1,4212,plus1,0,GREY.bmp,Judgeindirect,blacksquare2.gif,pic33.bmp,Mask.bmp,0112116,15:41,3.0.6.0,1,blackindirect,6,2,2152,plus1,0,b08.bmp,Judgeindirect,blacksquare2.gif,pic42.bmp,Mask.bmp,0112116,15:41,3.0.6.0,1,blackindirect,6,3,580,plus1,0,b03.bmp,Judgeindirect,blacksquare2.gif,pic5.bmp,Mask.bmp,0112116,15:41,3.0.6.0,1,whiteindirect,6,4,1608,plus1,0,w01.bmp,Judgeindirect,blacksquare2.gif,pic45.bmp,Mask.bmp,0112116,15:41,3.0.6.0,1,neutral,6,5,1280,plus1,0,GREY.bmp,Judgeindirect,blacksquare2.gif,pic9.bmp,Mask.bmp,0112116,15:41,3.0.6.0,1,whiteindirect,6,6,680,plus1,0,w05.bmp,Judgeindirect,blacksquare2.gif,pic3.bmp,Mask.bmp,0112116,15:41,3.0.6.0,1,neutral,6,7,777,plus1,0,GREY.bmp,Judgeindirect,blacksquare2.gif,pic55.bmp,Mask.bmp,0112116,15:41,3.0.6.0,1,blackindirect,6,8,1861,minus1,0,b10.bmp,Judgeindirect,blacksquare2.gif,pic60.bmp,Mask.bmp,0112116,15:41,3.0.6.0,1,whiteindirect,6,9,1791,minus1,0,b12.jpg,Judgeindirect,blacksquare2.gif,pic52.bmp,Mask.bmp,0112116,15:41,3.0.6.0,1,neutral,6,10,1036,plus1,0,GREY.bmp,Judgeindirect,blacksquare2.gif,pic44.bmp,Mask.bmp,0112116,15:41,3.0.6.0,1,whiteindirect,6,11,2458,plus1,0,b10.jpg,Judgeindirect,blacksquare2.gif,pic34.bmp,Mask.bmp,0112116,15:41,3.0.6.0,1,whiteindirect,6,12,1659,plus1,0,w06.bmp,Judgeindirect,blacksquare2.gif,pic70.bmp,Mask.bmp,0112116,15:41,3.0.6.0,1,neutral,6,13,1085,minus1,0,GREY.bmp,Judgeindirect,blacksquare2.gif,pic47.bmp,Mask.bmp,0112116,15:41,3.0.6.0,1,whiteindirect,6,14,1021,minus1,0,w02.bmp,Judgeindirect,blacksquare2.gif,pic18.bmp,Mask.bmp,0112116,15:41,3.0.6.0,1,whiteindirect,6,15,953,plus1,0,w08.bmp,Judgeindirect,blacksquare2.gif,pic37.bmp,Mask.bmp,0112116,15:41,3.0.6.0,1,blackindirect,6,16,1047,minus1,0,b07.bmp,Judgeindirect,blacksquare2.gif,pic16.bmp,Mask.bmp,0112116,15:41,3.0.6.0,1,blackindirect,6,17,775,plus1,0,b02.bmp,Judgeindirect,blacksquare2.gif,pic50.bmp,Mask.bmp,0112116,15:41,3.0.6.0,1,blackindirect,6,18,491,plus1,0,b11.bmp,Judgeindirect,blacksquare2.gif,pic46.bmp,Mask.bmp,0112116,15:41,3.0.6.0,1,neutral,6,19,932,plus1,0,GREY.bmp,Judgeindirect,blacksquare2.gif,pic54.bmp,Mask.bmp,0112116,15:41,3.0.6.0,1,whiteindirect,6,20,533,plus1,0,w07.bmp,Judgeindirect,blacksquare2.gif,pic62.bmp,Mask.bmp,0112116,15:41,3.0.6.0,1,neutral,6,21,1233,minus1,0,GREY.bmp,Judgeindirect,blacksquare2.gif,pic10.bmp,Mask.bmp,0112116,15:41,3.0.6.0,1,blackindirect,6,22,863,minus1,0,b12.bmp,Judgeindirect,blacksquare2.gif,pic61.bmp,Mask.bmp,0112116,15:41,3.0.6.0,1,whiteindirect,6,23,1210,plus1,0,b11.jpg,Judgeindirect,blacksquare2.gif,pic32.bmp,Mask.bmp,0112116,15:41,3.0.6.0,1,blackindirect,6,24,707,plus1,0,b05.bmp,Judgeindirect,blacksquare2.gif,pic22.bmp,Mask.bmp,0112116,15:41,3.0.6.0,1,neutral,6,25,705,plus1,0,GREY.bmp,Judgeindirect,blacksquare2.gif,pic13.bmp,Mask.bmp,0112116,15:41,3.0.6.0,1,neutral,6,26,581,plus1,0,GREY.bmp,Judgeindirect,blacksquare2.gif,pic4.bmp,Mask.bmp,0112116,15:41,3.0.6.0,1,neutral,6,27,545,plus1,0,GREY.bmp,Judgeindirect,blacksquare2.gif,pic30.bmp,Mask.bmp,0112116,15:41,3.0.6.0,1,blackindirect,6,28,909,minus1,0,b01.bmp,Judgeindirect,blacksquare2.gif,pic40.bmp,Mask.bmp,0112116,15:41,3.0.6.0,1,neutral,6,29,1579,minus1,0,GREY.bmp,Judgeindirect,blacksquare2.gif,pic17.bmp,Mask.bmp,0112116,15:41,3.0.6.0,1,whiteindirect,6,30,877,plus1,0,w04.bmp,Judgeindirect,blacksquare2.gif,pic20.bmp,Mask.bmp,0112116,15:41,3.0.6.0,1,blackindirect,6,31,579,plus1,0,b09.bmp,Judgeindirect,blacksquare2.gif,pic59.bmp,Mask.bmp,0112116,15:41,3.0.6.0,1,whiteindirect,6,32,623,plus1,0,w03.bmp,Judgeindirect,blacksquare2.gif,pic39.bmp,Mask.bmp,0112116,15:41,3.0.6.0,1,whiteindirect,6,33,507,plus1,0,w09.bmp,Judgeindirect,blacksquare2.gif,pic57.bmp,Mask.bmp,0112116,15:41,3.0.6.0,1,whiteindirect,6,34,738,plus1,0,b11.jpg,Judgeindirect,blacksquare2.gif,pic27.bmp,Mask.bmp,0112116,15:41,3.0.6.0,1,blackindirect,6,35,494,plus1,0,b04.bmp,Judgeindirect,blacksquare2.gif,pic71.bmp,Mask.bmp,0112116,15:41,3.0.6.0,1,whiteindirect,6,36,1602,minus1,0,w05.bmp,Judgeindirect,blacksquare2.gif,pic69.bmp,Mask.bmp,0112116,15:41,3.0.6.0,1,whiteindirect,6,37,777,plus1,0,w07.bmp,Judgeindirect,blacksquare2.gif,pic31.bmp,Mask.bmp,0112116,15:41,3.0.6.0,1,blackindirect,6,38,557,plus1,0,b06.bmp,Judgeindirect,blacksquare2.gif,pic63.bmp,Mask.bmp,0112116,15:41,3.0.6.0,1,blackindirect,6,39,1572,minus1,0,b12.bmp,Judgeindirect,blacksquare2.gif,pic43.bmp,Mask.bmp,0112116,15:41,3.0.6.0,1,blackindirect,6,40,1716,minus1,0,b04.bmp,Judgeindirect,blacksquare2.gif,pic67.bmp,Mask.bmp,0112116,15:41,3.0.6.0,1,neutral,6,41,1904,plus1,0,GREY.bmp,Judgeindirect,blacksquare2.gif,pic14.bmp,Mask.bmp,0112116,15:41,3.0.6.0,1,neutral,6,42,410,plus1,0,GREY.bmp,Judgeindirect,blacksquare2.gif,pic12.bmp,Mask.bmp,0112116,15:41,3.0.6.0,1,neutral,6,43,524,plus1,0,GREY.bmp,Judgeindirect,blacksquare2.gif,pic6.bmp,Mask.bmp,0112116,15:41,3.0.6.0,1,neutral,6,44,341,plus1,0,GREY.bmp,Judgeindirect,blacksquare2.gif,pic15.bmp,Mask.bmp,0112116,15:41,3.0.6.0,1,whiteindirect,6,45,562,plus1,0,w04.bmp,Judgeindirect,blacksquare2.gif,pic73.bmp,Mask.bmp,0112116,15:41,3.0.6.0,1,blackindirect,6,46,483,plus1,0,b09.bmp,Judgeindirect,blacksquare2.gif,pic48.bmp,Mask.bmp,0112116,15:41,3.0.6.0,1,neutral,6,47,572,plus1,0,GREY.bmp,Judgeindirect,blacksquare2.gif,pic8.bmp,Mask.bmp,0112116,15:41,3.0.6.0,1,blackindirect,6,48,520,plus1,0,b11.bmp,Judgeindirect,blacksquare2.gif,pic36.bmp,Mask.bmp,0112116,15:41,3.0.6.0,1,whiteindirect,6,49,1178,plus1,0,w01.bmp,Judgeindirect,blacksquare2.gif,pic25.bmp,Mask.bmp,0112116,15:41,3.0.6.0,1,neutral,6,50,1101,minus1,0,GREY.bmp,Judgeindirect,blacksquare2.gif,pic2.bmp,Mask.bmp,0112116,15:41,3.0.6.0,1,blackindirect,6,51,1040,plus1,0,b08.bmp,Judgeindirect,blacksquare2.gif,pic66.bmp,Mask.bmp,0112116,15:41,3.0.6.0,1,blackindirect,6,52,1105,minus1,0,b10.bmp,Judgeindirect,blacksquare2.gif,pic64.bmp,Mask.bmp,0112116,15:41,3.0.6.0,1,neutral,6,53,1356,plus1,0,GREY.bmp,Judgeindirect,blacksquare2.gif,pic65.bmp,Mask.bmp,0112116,15:41,3.0.6.0,1,whiteindirect,6,54,1521,plus1,0,b12.jpg,Judgeindirect,blacksquare2.gif,pic11.bmp,Mask.bmp,0112116,15:41,3.0.6.0,1,whiteindirect,6,55,513,plus1,0,w03.bmp,Judgeindirect,blacksquare2.gif,pic28.bmp,Mask.bmp,0112116,15:41,3.0.6.0,1,neutral,6,56,432,plus1,0,GREY.bmp,Judgeindirect,blacksquare2.gif,pic56.bmp,Mask.bmp,0112116,15:41,3.0.6.0,1,blackindirect,6,57,470,plus1,0,b03.bmp,Judgeindirect,blacksquare2.gif,pic41.bmp,Mask.bmp,0112116,15:41,3.0.6.0,1,blackindirect,6,58,477,plus1,0,b02.bmp,Judgeindirect,blacksquare2.gif,pic29.bmp,Mask.bmp,0112116,15:41,3.0.6.0,1,whiteindirect,6,59,476,plus1,0,w06.bmp,Judgeindirect,blacksquare2.gif,pic24.bmp,Mask.bmp,0112116,15:41,3.0.6.0,1,neutral,6,60,451,plus1,0,GREY.bmp,Judgeindirect,blacksquare2.gif,pic51.bmp,Mask.bmp,0112116,15:41,3.0.6.0,1,blackindirect,6,61,484,plus1,0,b01.bmp,Judgeindirect,blacksquare2.gif,pic21.bmp,Mask.bmp,0112116,15:41,3.0.6.0,1,neutral,6,62,718,plus1,0,GREY.bmp,Judgeindirect,blacksquare2.gif,pic19.bmp,Mask.bmp,0112116,15:41,3.0.6.0,1,neutral,6,63,1276,minus1,0,GREY.bmp,Judgeindirect,blacksquare2.gif,pic75.bmp,Mask.bmp,0112116,15:41,3.0.6.0,1,neutral,6,64,858,plus1,0,GREY.bmp,Judgeindirect,blacksquare2.gif,pic49.bmp,Mask.bmp,0112116,15:41,3.0.6.0,1,blackindirect,6,65,493,plus1,0,b07.bmp,Judgeindirect,blacksquare2.gif,pic26.bmp,Mask.bmp,0112116,15:41,3.0.6.0,1,neutral,6,66,385,plus1,0,GREY.bmp,Judgeindirect,blacksquare2.gif,pic72.bmp,Mask.bmp,0112116,15:41,3.0.6.0,1,whiteindirect,6,67,472,plus1,0,w09.bmp,Judgeindirect,blacksquare2.gif,pic53.bmp,Mask.bmp,0112116,15:41,3.0.6.0,1,blackindirect,6,68,615,plus1,0,b05.bmp,Judgeindirect,blacksquare2.gif,pic1.bmp,Mask.bmp,0112116,15:41,3.0.6.0,1,whiteindirect,6,69,867,plus1,0,b10.jpg,Judgeindirect,blacksquare2.gif,pic68.bmp,Mask.bmp,0112116,15:41,3.0.6.0,1,blackindirect,6,70,1241,plus1,0,b06.bmp,Judgeindirect,blacksquare2.gif,pic74.bmp,Mask.bmp,0112116,15:41,3.0.6.0,1,whiteindirect,6,71,713,plus1,0,w08.bmp,Judgeindirect,blacksquare2.gif,pic38.bmp,Mask.bmp,0112116,15:41,3.0.6.0,1,whiteindirect,6,72,1208,minus1,0,w02.bmp,Judgeindirect,blacksquare2.gif,pic23.bmp,Mask.bmp,0112116,15:41,3.0.6.0,1,sesso,7,1,19771,1,1,0,demo,0,0,0,0112116,15:41,3.0.6.0,1,anni,7,1,19771,22,1,0,demo,0,0,0,0112116,15:41,3.0.6.0,1,etnia,7,1,19771,Caucasico,1,0,demo,0,0,0,0112116,15:58,3.0.6.0,2,practice,1,1,7488,57,1,sample.bmp,orient1,blacksquare2.gif,pic76.bmp,Mask.bmp,0112116,15:58,3.0.6.0,2,whiteindirect,4,1,9603,plus1,0,w03.bmp,Judgeindirect,blacksquare2.gif,pic53.bmp,Mask.bmp,0112116,15:58,3.0.6.0,2,neutral,4,2,4028,plus1,0,GREY.bmp,Judgeindirect,blacksquare2.gif,pic14.bmp,Mask.bmp,0112116,15:58,3.0.6.0,2,blackindirect,4,3,26841,plus1,0,b06.bmp,Judgeindirect,blacksquare2.gif,pic20.bmp,Mask.bmp,0112116,15:58,3.0.6.0,2,blackindirect,4,4,2332,plus2,0,b09.bmp,Judgeindirect,blacksquare2.gif,pic27.bmp,Mask.bmp,0112116,15:58,3.0.6.0,2,blackindirect,4,5,1762,minus1,0,b05.bmp,Judgeindirect,blacksquare2.gif,pic31.bmp,Mask.bmp,0112116,15:58,3.0.6.0,2,neutral,4,6,2930,plus1,0,GREY.bmp,Judgeindirect,blacksquare2.gif,pic29.bmp,Mask.bmp,0112116,15:58,3.0.6.0,2,whiteindirect,4,7,2135,minus1,0,w06.bmp,Judgeindirect,blacksquare2.gif,pic9.bmp,Mask.bmp,0112116,15:58,3.0.6.0,2,blackindirect,4,8,1193,plus2,0,b10.bmp,Judgeindirect,blacksquare2.gif,pic28.bmp,Mask.bmp,0112116,15:58,3.0.6.0,2,whiteindirect,4,9,1767,minus2,0,w05.bmp,Judgeindirect,blacksquare2.gif,pic1.bmp,Mask.bmp,0112116,15:58,3.0.6.0,2,whiteindirect,4,10,2822,plus1,0,w04.bmp,Judgeindirect,blacksquare2.gif,pic11.bmp,Mask.bmp,0112116,15:58,3.0.6.0,2,blackindirect,4,11,2087,minus1,0,b12.bmp,Judgeindirect,blacksquare2.gif,pic72.bmp,Mask.bmp,0112116,15:58,3.0.6.0,2,neutral,4,12,1486,plus2,0,GREY.bmp,Judgeindirect,blacksquare2.gif,pic12.bmp,Mask.bmp,0112116,15:58,3.0.6.0,2,whiteindirect,4,13,1054,plus2,0,w01.bmp,Judgeindirect,blacksquare2.gif,pic40.bmp,Mask.bmp,0112116,15:58,3.0.6.0,2,whiteindirect,4,14,1329,plus1,0,w09.bmp,Judgeindirect,blacksquare2.gif,pic5.bmp,Mask.bmp,0112116,15:58,3.0.6.0,2,whiteindirect,4,15,1745,plus1,0,b12.jpg,Judgeindirect,blacksquare2.gif,pic46.bmp,Mask.bmp,0112116,15:58,3.0.6.0,2,whiteindirect,4,16,1515,plus2,0,b11.jpg,Judgeindirect,blacksquare2.gif,pic44.bmp,Mask.bmp,0112116,15:58,3.0.6.0,2,neutral,4,17,1904,plus2,0,GREY.bmp,Judgeindirect,blacksquare2.gif,pic73.bmp,Mask.bmp,0112116,15:58,3.0.6.0,2,blackindirect,4,18,2530,plus2,0,b11.bmp,Judgeindirect,blacksquare2.gif,pic67.bmp,Mask.bmp,0112116,15:58,3.0.6.0,2,whiteindirect,4,19,1691,minus2,0,b10.jpg,Judgeindirect,blacksquare2.gif,pic62.bmp,Mask.bmp,0112116,15:58,3.0.6.0,2,whiteindirect,4,20,1531,minus2,0,w02.bmp,Judgeindirect,blacksquare2.gif,pic10.bmp,Mask.bmp,0112116,15:58,3.0.6.0,2,neutral,4,21,1635,plus2,0,GREY.bmp,Judgeindirect,blacksquare2.gif,pic19.bmp,Mask.bmp,0112116,15:58,3.0.6.0,2,neutral,4,22,1784,minus1,0,GREY.bmp,Judgeindirect,blacksquare2.gif,pic68.bmp,Mask.bmp,0112116,15:58,3.0.6.0,2,whiteindirect,4,23,1450,plus1,0,w07.bmp,Judgeindirect,blacksquare2.gif,pic26.bmp,Mask.bmp,0112116,15:58,3.0.6.0,2,blackindirect,4,24,2130,plus1,0,b03.bmp,Judgeindirect,blacksquare2.gif,pic52.bmp,Mask.bmp,0112116,15:58,3.0.6.0,2,whiteindirect,4,25,857,plus1,0,w08.bmp,Judgeindirect,blacksquare2.gif,pic66.bmp,Mask.bmp,0112116,15:58,3.0.6.0,2,neutral,4,26,1164,plus2,0,GREY.bmp,Judgeindirect,blacksquare2.gif,pic65.bmp,Mask.bmp,0112116,15:58,3.0.6.0,2,blackindirect,4,27,1292,minus2,0,b07.bmp,Judgeindirect,blacksquare2.gif,pic39.bmp,Mask.bmp,0112116,15:58,3.0.6.0,2,neutral,4,28,1373,plus2,0,GREY.bmp,Judgeindirect,blacksquare2.gif,pic69.bmp,Mask.bmp,0112116,15:58,3.0.6.0,2,neutral,4,29,861,plus2,0,GREY.bmp,Judgeindirect,blacksquare2.gif,pic59.bmp,Mask.bmp,0112116,15:58,3.0.6.0,2,whiteindirect,4,30,1200,plus2,0,b12.jpg,Judgeindirect,blacksquare2.gif,pic75.bmp,Mask.bmp,0112116,15:58,3.0.6.0,2,whiteindirect,4,31,1529,minus2,0,w09.bmp,Judgeindirect,blacksquare2.gif,pic23.bmp,Mask.bmp,0112116,15:58,3.0.6.0,2,neutral,4,32,1232,minus2,0,GREY.bmp,Judgeindirect,blacksquare2.gif,pic70.bmp,Mask.bmp,0112116,15:58,3.0.6.0,2,neutral,4,33,1574,plus1,0,GREY.bmp,Judgeindirect,blacksquare2.gif,pic55.bmp,Mask.bmp,0112116,15:58,3.0.6.0,2,blackindirect,4,34,1089,plus2,0,b01.bmp,Judgeindirect,blacksquare2.gif,pic2.bmp,Mask.bmp,0112116,15:58,3.0.6.0,2,neutral,4,35,681,plus2,0,GREY.bmp,Judgeindirect,blacksquare2.gif,pic7.bmp,Mask.bmp,0112116,15:58,3.0.6.0,2,blackindirect,4,36,1322,plus2,0,b02.bmp,Judgeindirect,blacksquare2.gif,pic48.bmp,Mask.bmp,0112116,15:58,3.0.6.0,2,neutral,4,37,1506,minus2,0,GREY.bmp,Judgeindirect,blacksquare2.gif,pic51.bmp,Mask.bmp,0112116,15:58,3.0.6.0,2,blackindirect,4,38,1317,minus2,0,b08.bmp,Judgeindirect,blacksquare2.gif,pic36.bmp,Mask.bmp,0112116,15:58,3.0.6.0,2,neutral,4,39,1482,plus1,0,GREY.bmp,Judgeindirect,blacksquare2.gif,pic30.bmp,Mask.bmp,0112116,15:58,3.0.6.0,2,blackindirect,4,40,1538,minus1,0,b04.bmp,Judgeindirect,blacksquare2.gif,pic25.bmp,Mask.bmp,0112116,15:58,3.0.6.0,2,blackindirect,4,41,677,minus1,0,b05.bmp,Judgeindirect,blacksquare2.gif,pic16.bmp,Mask.bmp,0112116,15:58,3.0.6.0,2,whiteindirect,4,42,651,minus1,0,w02.bmp,Judgeindirect,blacksquare2.gif,pic3.bmp,Mask.bmp,0112116,15:58,3.0.6.0,2,whiteindirect,4,43,1156,plus1,0,w01.bmp,Judgeindirect,blacksquare2.gif,pic41.bmp,Mask.bmp,0112116,15:58,3.0.6.0,2,blackindirect,4,44,994,plus2,0,b08.bmp,Judgeindirect,blacksquare2.gif,pic34.bmp,Mask.bmp,0112116,15:58,3.0.6.0,2,neutral,4,45,616,plus2,0,GREY.bmp,Judgeindirect,blacksquare2.gif,pic42.bmp,Mask.bmp,0112116,15:58,3.0.6.0,2,blackindirect,4,46,1452,minus1,0,b11.bmp,Judgeindirect,blacksquare2.gif,pic4.bmp,Mask.bmp,0112116,15:58,3.0.6.0,2,whiteindirect,4,47,1004,minus2,0,w04.bmp,Judgeindirect,blacksquare2.gif,pic33.bmp,Mask.bmp,0112116,15:58,3.0.6.0,2,blackindirect,4,48,2492,minus1,0,b10.bmp,Judgeindirect,blacksquare2.gif,pic47.bmp,Mask.bmp,0112116,15:58,3.0.6.0,2,blackindirect,4,49,1995,plus1,0,b06.bmp,Judgeindirect,blacksquare2.gif,pic24.bmp,Mask.bmp,0112116,15:58,3.0.6.0,2,blackindirect,4,50,1927,minus1,0,b02.bmp,Judgeindirect,blacksquare2.gif,pic50.bmp,Mask.bmp,0112116,15:58,3.0.6.0,2,neutral,4,51,1439,minus2,0,GREY.bmp,Judgeindirect,blacksquare2.gif,pic8.bmp,Mask.bmp,0112116,15:58,3.0.6.0,2,neutral,4,52,1300,minus1,0,GREY.bmp,Judgeindirect,blacksquare2.gif,pic49.bmp,Mask.bmp,0112116,15:58,3.0.6.0,2,blackindirect,4,53,1207,minus2,0,b03.bmp,Judgeindirect,blacksquare2.gif,pic17.bmp,Mask.bmp,0112116,15:58,3.0.6.0,2,neutral,4,54,1623,plus2,0,GREY.bmp,Judgeindirect,blacksquare2.gif,pic37.bmp,Mask.bmp,0112116,15:58,3.0.6.0,2,neutral,4,55,897,plus2,0,GREY.bmp,Judgeindirect,blacksquare2.gif,pic6.bmp,Mask.bmp,0112116,15:58,3.0.6.0,2,blackindirect,4,56,2285,plus1,0,b07.bmp,Judgeindirect,blacksquare2.gif,pic54.bmp,Mask.bmp,0112116,15:58,3.0.6.0,2,whiteindirect,4,57,1100,minus2,0,w03.bmp,Judgeindirect,blacksquare2.gif,pic61.bmp,Mask.bmp,0112116,15:58,3.0.6.0,2,blackindirect,4,58,599,minus2,0,b12.bmp,Judgeindirect,blacksquare2.gif,pic60.bmp,Mask.bmp,0112116,15:58,3.0.6.0,2,whiteindirect,4,59,1416,minus1,0,w07.bmp,Judgeindirect,blacksquare2.gif,pic13.bmp,Mask.bmp,0112116,15:58,3.0.6.0,2,blackindirect,4,60,1115,plus2,0,b01.bmp,Judgeindirect,blacksquare2.gif,pic15.bmp,Mask.bmp,0112116,15:58,3.0.6.0,2,whiteindirect,4,61,2387,minus1,0,w08.bmp,Judgeindirect,blacksquare2.gif,pic38.bmp,Mask.bmp,0112116,15:58,3.0.6.0,2,whiteindirect,4,62,1908,minus1,0,w05.bmp,Judgeindirect,blacksquare2.gif,pic63.bmp,Mask.bmp,0112116,15:58,3.0.6.0,2,blackindirect,4,63,1273,plus1,0,b09.bmp,Judgeindirect,blacksquare2.gif,pic57.bmp,Mask.bmp,0112116,15:58,3.0.6.0,2,blackindirect,4,64,1422,plus1,0,b04.bmp,Judgeindirect,blacksquare2.gif,pic64.bmp,Mask.bmp,0112116,15:58,3.0.6.0,2,neutral,4,65,1001,plus1,0,GREY.bmp,Judgeindirect,blacksquare2.gif,pic32.bmp,Mask.bmp,0112116,15:58,3.0.6.0,2,whiteindirect,4,66,522,plus1,0,w06.bmp,Judgeindirect,blacksquare2.gif,pic45.bmp,Mask.bmp,0112116,15:58,3.0.6.0,2,whiteindirect,4,67,491,plus1,0,b11.jpg,Judgeindirect,blacksquare2.gif,pic18.bmp,Mask.bmp,0112116,15:58,3.0.6.0,2,neutral,4,68,621,plus1,0,GREY.bmp,Judgeindirect,blacksquare2.gif,pic71.bmp,Mask.bmp,0112116,15:58,3.0.6.0,2,neutral,4,69,1600,minus2,0,GREY.bmp,Judgeindirect,blacksquare2.gif,pic43.bmp,Mask.bmp,0112116,15:58,3.0.6.0,2,neutral,4,70,520,minus2,0,GREY.bmp,Judgeindirect,blacksquare2.gif,pic22.bmp,Mask.bmp,0112116,15:58,3.0.6.0,2,neutral,4,71,457,minus2,0,GREY.bmp,Judgeindirect,blacksquare2.gif,pic74.bmp,Mask.bmp,0112116,15:58,3.0.6.0,2,whiteindirect,4,72,1342,minus1,0,b10.jpg,Judgeindirect,blacksquare2.gif,pic21.bmp,Mask.bmp,0112116,15:58,3.0.6.0,2,blackdirect,6,1,2490,minus1,0,b09.bmp,Judgedirect,blacksquare2.gif,pic81.bmp,Mask.bmp,0112116,15:58,3.0.6.0,2,whitedirect,6,2,1321,minus2,0,w05.bmp,Judgedirect,blacksquare2.gif,pic100.bmp,Mask.bmp,0112116,15:58,3.0.6.0,2,blackdirect,6,3,355,minus2,0,b12.bmp,Judgedirect,blacksquare2.gif,pic106.bmp,Mask.bmp,0112116,15:58,3.0.6.0,2,whitedirect,6,4,1093,plus1,0,w06.bmp,Judgedirect,blacksquare2.gif,pic105.bmp,Mask.bmp,0112116,15:58,3.0.6.0,2,blackdirect,6,5,997,minus1,0,b05.bmp,Judgedirect,blacksquare2.gif,pic104.bmp,Mask.bmp,0112116,15:58,3.0.6.0,2,whitedirect,6,6,843,plus1,0,w01.bmp,Judgedirect,blacksquare2.gif,pic112.bmp,Mask.bmp,0112116,15:58,3.0.6.0,2,blackdirect,6,7,1316,plus1,0,b01.bmp,Judgedirect,blacksquare2.gif,pic107.bmp,Mask.bmp,0112116,15:58,3.0.6.0,2,whitedirect,6,8,1682,plus1,0,w02.bmp,Judgedirect,blacksquare2.gif,pic80.bmp,Mask.bmp,0112116,15:58,3.0.6.0,2,blackdirect,6,9,634,plus1,0,b03.bmp,Judgedirect,blacksquare2.gif,pic110.bmp,Mask.bmp,0112116,15:58,3.0.6.0,2,whitedirect,6,10,1312,minus1,0,w07.bmp,Judgedirect,blacksquare2.gif,pic102.bmp,Mask.bmp,0112116,15:58,3.0.6.0,2,blackdirect,6,11,645,minus1,0,b06.bmp,Judgedirect,blacksquare2.gif,pic118.bmp,Mask.bmp,0112116,15:58,3.0.6.0,2,whitedirect,6,12,1903,minus2,0,b12.jpg,Judgedirect,blacksquare2.gif,pic101.bmp,Mask.bmp,0112116,15:58,3.0.6.0,2,blackdirect,6,13,705,minus2,0,b10.bmp,Judgedirect,blacksquare2.gif,pic82.bmp,Mask.bmp,0112116,15:58,3.0.6.0,2,whitedirect,6,14,1844,plus1,0,w04.bmp,Judgedirect,blacksquare2.gif,pic109.bmp,Mask.bmp,0112116,15:58,3.0.6.0,2,blackdirect,6,15,1228,minus2,0,b04.bmp,Judgedirect,blacksquare2.gif,pic116.bmp,Mask.bmp,0112116,15:58,3.0.6.0,2,whitedirect,6,16,1049,plus2,0,w09.bmp,Judgedirect,blacksquare2.gif,pic117.bmp,Mask.bmp,0112116,15:58,3.0.6.0,2,blackdirect,6,17,1066,minus1,0,b08.bmp,Judgedirect,blacksquare2.gif,pic108.bmp,Mask.bmp,0112116,15:58,3.0.6.0,2,whitedirect,6,18,245,minus1,0,b11.jpg,Judgedirect,blacksquare2.gif,pic114.bmp,Mask.bmp,0112116,15:58,3.0.6.0,2,blackdirect,6,19,983,plus2,0,b07.bmp,Judgedirect,blacksquare2.gif,pic79.bmp,Mask.bmp,0112116,15:58,3.0.6.0,2,whitedirect,6,20,2826,plus1,0,w08.bmp,Judgedirect,blacksquare2.gif,pic103.bmp,Mask.bmp,0112116,15:58,3.0.6.0,2,blackdirect,6,21,1099,minus1,0,b11.bmp,Judgedirect,blacksquare2.gif,pic78.bmp,Mask.bmp,0112116,15:58,3.0.6.0,2,whitedirect,6,22,1518,plus1,0,b10.jpg,Judgedirect,blacksquare2.gif,pic111.bmp,Mask.bmp,0112116,15:58,3.0.6.0,2,blackdirect,6,23,1691,plus2,0,b02.bmp,Judgedirect,blacksquare2.gif,pic113.bmp,Mask.bmp,0112116,15:58,3.0.6.0,2,whitedirect,6,24,1946,minus1,0,w03.bmp,Judgedirect,blacksquare2.gif,pic115.bmp,Mask.bmp,0112116,15:58,3.0.6.0,2,sesso,7,1,10275,2,1,0,demo,0,0,0,0112116,15:58,3.0.6.0,2,anni,7,1,10275,23,1,0,demo,0,0,0,0112116,15:58,3.0.6.0,2,etnia,7,1,10275,Caucasico,1,0,demo,0,0,0,0112116,16:40,3.0.6.0,3,practice,1,1,3547,57,1,sample.bmp,orient1,blacksquare2.gif,pic76.bmp,Mask.bmp,0112116,16:40,3.0.6.0,3,whiteindirect,4,1,6204,plus1,0,w07.bmp,Judgeindirect,blacksquare2.gif,pic44.bmp,Mask.bmp,0112116,16:40,3.0.6.0,3,blackindirect,4,2,6218,minus1,0,b11.bmp,Judgeindirect,blacksquare2.gif,pic65.bmp,Mask.bmp,0112116,16:40,3.0.6.0,3,blackindirect,4,3,6475,minus1,0,b07.bmp,Judgeindirect,blacksquare2.gif,pic18.bmp,Mask.bmp,0112116,16:40,3.0.6.0,3,neutral,4,4,10472,plus1,0,GREY.bmp,Judgeindirect,blacksquare2.gif,pic9.bmp,Mask.bmp,0112116,16:40,3.0.6.0,3,neutral,4,5,6261,plus2,0,GREY.bmp,Judgeindirect,blacksquare2.gif,pic61.bmp,Mask.bmp,0112116,16:40,3.0.6.0,3,neutral,4,6,7016,plus1,0,GREY.bmp,Judgeindirect,blacksquare2.gif,pic72.bmp,Mask.bmp,0112116,16:40,3.0.6.0,3,whiteindirect,4,7,3616,plus1,0,w08.bmp,Judgeindirect,blacksquare2.gif,pic67.bmp,Mask.bmp,0112116,16:40,3.0.6.0,3,blackindirect,4,8,6876,minus1,0,b04.bmp,Judgeindirect,blacksquare2.gif,pic52.bmp,Mask.bmp,0112116,16:40,3.0.6.0,3,blackindirect,4,9,4130,plus1,0,b05.bmp,Judgeindirect,blacksquare2.gif,pic12.bmp,Mask.bmp,0112116,16:40,3.0.6.0,3,whiteindirect,4,10,1501,minus1,0,b11.jpg,Judgeindirect,blacksquare2.gif,pic25.bmp,Mask.bmp,0112116,16:40,3.0.6.0,3,neutral,4,11,2472,plus1,0,GREY.bmp,Judgeindirect,blacksquare2.gif,pic19.bmp,Mask.bmp,0112116,16:40,3.0.6.0,3,neutral,4,12,1364,plus1,0,GREY.bmp,Judgeindirect,blacksquare2.gif,pic40.bmp,Mask.bmp,0112116,16:40,3.0.6.0,3,blackindirect,4,13,1500,plus1,0,b08.bmp,Judgeindirect,blacksquare2.gif,pic34.bmp,Mask.bmp,0112116,16:40,3.0.6.0,3,neutral,4,14,3094,plus1,0,GREY.bmp,Judgeindirect,blacksquare2.gif,pic51.bmp,Mask.bmp,0112116,16:40,3.0.6.0,3,neutral,4,15,2252,plus1,0,GREY.bmp,Judgeindirect,blacksquare2.gif,pic15.bmp,Mask.bmp,0112116,16:40,3.0.6.0,3,neutral,4,16,4355,plus1,0,GREY.bmp,Judgeindirect,blacksquare2.gif,pic58.bmp,Mask.bmp,0112116,16:40,3.0.6.0,3,blackindirect,4,17,1435,minus1,0,b09.bmp,Judgeindirect,blacksquare2.gif,pic63.bmp,Mask.bmp,0112116,16:40,3.0.6.0,3,blackindirect,4,18,1153,plus1,0,b02.bmp,Judgeindirect,blacksquare2.gif,pic59.bmp,Mask.bmp,0112116,16:40,3.0.6.0,3,blackindirect,4,19,2015,minus1,0,b06.bmp,Judgeindirect,blacksquare2.gif,pic46.bmp,Mask.bmp,0112116,16:40,3.0.6.0,3,whiteindirect,4,20,1336,plus1,0,w02.bmp,Judgeindirect,blacksquare2.gif,pic74.bmp,Mask.bmp,0112116,16:40,3.0.6.0,3,neutral,4,21,2131,plus1,0,GREY.bmp,Judgeindirect,blacksquare2.gif,pic31.bmp,Mask.bmp,0112116,16:40,3.0.6.0,3,whiteindirect,4,22,850,plus1,0,w05.bmp,Judgeindirect,blacksquare2.gif,pic33.bmp,Mask.bmp,0112116,16:40,3.0.6.0,3,blackindirect,4,23,1539,plus1,0,b03.bmp,Judgeindirect,blacksquare2.gif,pic42.bmp,Mask.bmp,0112116,16:40,3.0.6.0,3,blackindirect,4,24,2181,plus1,0,b10.bmp,Judgeindirect,blacksquare2.gif,pic24.bmp,Mask.bmp,0112116,16:40,3.0.6.0,3,blackindirect,4,25,703,plus1,0,b12.bmp,Judgeindirect,blacksquare2.gif,pic21.bmp,Mask.bmp,0112116,16:40,3.0.6.0,3,neutral,4,26,5355,minus1,0,GREY.bmp,Judgeindirect,blacksquare2.gif,pic29.bmp,Mask.bmp,0112116,16:40,3.0.6.0,3,neutral,4,27,1746,plus1,0,GREY.bmp,Judgeindirect,blacksquare2.gif,pic54.bmp,Mask.bmp,0112116,16:40,3.0.6.0,3,whiteindirect,4,28,1420,plus2,0,w06.bmp,Judgeindirect,blacksquare2.gif,pic4.bmp,Mask.bmp,0112116,16:40,3.0.6.0,3,whiteindirect,4,29,927,plus1,0,b10.jpg,Judgeindirect,blacksquare2.gif,pic23.bmp,Mask.bmp,0112116,16:40,3.0.6.0,3,neutral,4,30,1208,plus1,0,GREY.bmp,Judgeindirect,blacksquare2.gif,pic5.bmp,Mask.bmp,0112116,16:40,3.0.6.0,3,blackindirect,4,31,1208,minus1,0,b01.bmp,Judgeindirect,blacksquare2.gif,pic32.bmp,Mask.bmp,0112116,16:40,3.0.6.0,3,whiteindirect,4,32,1992,plus1,0,w04.bmp,Judgeindirect,blacksquare2.gif,pic56.bmp,Mask.bmp,0112116,16:40,3.0.6.0,3,neutral,4,33,3421,plus1,0,GREY.bmp,Judgeindirect,blacksquare2.gif,pic57.bmp,Mask.bmp,0112116,16:40,3.0.6.0,3,whiteindirect,4,34,1428,plus1,0,w01.bmp,Judgeindirect,blacksquare2.gif,pic1.bmp,Mask.bmp,0112116,16:40,3.0.6.0,3,blackindirect,4,35,2578,plus1,0,b11.bmp,Judgeindirect,blacksquare2.gif,pic3.bmp,Mask.bmp,0112116,16:40,3.0.6.0,3,neutral,4,36,1659,minus1,0,GREY.bmp,Judgeindirect,blacksquare2.gif,pic68.bmp,Mask.bmp,0112116,16:40,3.0.6.0,3,whiteindirect,4,37,1677,minus1,0,w09.bmp,Judgeindirect,blacksquare2.gif,pic50.bmp,Mask.bmp,0112116,16:40,3.0.6.0,3,whiteindirect,4,38,2130,minus1,0,w03.bmp,Judgeindirect,blacksquare2.gif,pic66.bmp,Mask.bmp,0112116,16:40,3.0.6.0,3,whiteindirect,4,39,873,minus1,0,b12.jpg,Judgeindirect,blacksquare2.gif,pic64.bmp,Mask.bmp,0112116,16:40,3.0.6.0,3,blackindirect,4,40,639,minus1,0,b04.bmp,Judgeindirect,blacksquare2.gif,pic55.bmp,Mask.bmp,0112116,16:40,3.0.6.0,3,blackindirect,4,41,2517,plus1,0,b01.bmp,Judgeindirect,blacksquare2.gif,pic60.bmp,Mask.bmp,0112116,16:40,3.0.6.0,3,blackindirect,4,42,3081,minus1,0,b08.bmp,Judgeindirect,blacksquare2.gif,pic49.bmp,Mask.bmp,0112116,16:40,3.0.6.0,3,blackindirect,4,43,1156,minus1,0,b07.bmp,Judgeindirect,blacksquare2.gif,pic20.bmp,Mask.bmp,0112116,16:40,3.0.6.0,3,neutral,4,44,2098,plus1,0,GREY.bmp,Judgeindirect,blacksquare2.gif,pic41.bmp,Mask.bmp,0112116,16:40,3.0.6.0,3,blackindirect,4,45,979,minus1,0,b02.bmp,Judgeindirect,blacksquare2.gif,pic47.bmp,Mask.bmp,0112116,16:40,3.0.6.0,3,whiteindirect,4,46,1391,plus1,0,w07.bmp,Judgeindirect,blacksquare2.gif,pic53.bmp,Mask.bmp,0112116,16:40,3.0.6.0,3,neutral,4,47,1076,plus1,0,GREY.bmp,Judgeindirect,blacksquare2.gif,pic75.bmp,Mask.bmp,0112116,16:40,3.0.6.0,3,whiteindirect,4,48,434,plus1,0,w02.bmp,Judgeindirect,blacksquare2.gif,pic28.bmp,Mask.bmp,0112116,16:40,3.0.6.0,3,blackindirect,4,49,2161,plus1,0,b10.bmp,Judgeindirect,blacksquare2.gif,pic39.bmp,Mask.bmp,0112116,16:40,3.0.6.0,3,blackindirect,4,50,1021,plus1,0,b05.bmp,Judgeindirect,blacksquare2.gif,pic43.bmp,Mask.bmp,0112116,16:40,3.0.6.0,3,blackindirect,4,51,888,plus1,0,b09.bmp,Judgeindirect,blacksquare2.gif,pic30.bmp,Mask.bmp,0112116,16:40,3.0.6.0,3,whiteindirect,4,52,1057,minus1,0,b12.jpg,Judgeindirect,blacksquare2.gif,pic7.bmp,Mask.bmp,0112116,16:40,3.0.6.0,3,whiteindirect,4,53,1620,plus1,0,w04.bmp,Judgeindirect,blacksquare2.gif,pic2.bmp,Mask.bmp,0112116,16:40,3.0.6.0,3,whiteindirect,4,54,879,plus1,0,w03.bmp,Judgeindirect,blacksquare2.gif,pic26.bmp,Mask.bmp,0112116,16:40,3.0.6.0,3,blackindirect,4,55,1349,minus1,0,b06.bmp,Judgeindirect,blacksquare2.gif,pic11.bmp,Mask.bmp,0112116,16:40,3.0.6.0,3,whiteindirect,4,56,1698,plus1,0,w01.bmp,Judgeindirect,blacksquare2.gif,pic38.bmp,Mask.bmp,0112116,16:40,3.0.6.0,3,whiteindirect,4,57,708,plus1,0,w05.bmp,Judgeindirect,blacksquare2.gif,pic16.bmp,Mask.bmp,0112116,16:40,3.0.6.0,3,neutral,4,58,1563,plus1,0,GREY.bmp,Judgeindirect,blacksquare2.gif,pic73.bmp,Mask.bmp,0112116,16:40,3.0.6.0,3,neutral,4,59,1219,plus1,0,GREY.bmp,Judgeindirect,blacksquare2.gif,pic37.bmp,Mask.bmp,0112116,16:40,3.0.6.0,3,whiteindirect,4,60,854,minus1,0,b11.jpg,Judgeindirect,blacksquare2.gif,pic62.bmp,Mask.bmp,0112116,16:40,3.0.6.0,3,neutral,4,61,1401,plus1,0,GREY.bmp,Judgeindirect,blacksquare2.gif,pic10.bmp,Mask.bmp,0112116,16:40,3.0.6.0,3,blackindirect,4,62,2433,minus1,0,b12.bmp,Judgeindirect,blacksquare2.gif,pic71.bmp,Mask.bmp,0112116,16:40,3.0.6.0,3,whiteindirect,4,63,989,plus1,0,w06.bmp,Judgeindirect,blacksquare2.gif,pic69.bmp,Mask.bmp,0112116,16:40,3.0.6.0,3,neutral,4,64,635,plus1,0,GREY.bmp,Judgeindirect,blacksquare2.gif,pic8.bmp,Mask.bmp,0112116,16:40,3.0.6.0,3,neutral,4,65,1257,plus1,0,GREY.bmp,Judgeindirect,blacksquare2.gif,pic14.bmp,Mask.bmp,0112116,16:40,3.0.6.0,3,whiteindirect,4,66,1764,plus1,0,w09.bmp,Judgeindirect,blacksquare2.gif,pic6.bmp,Mask.bmp,0112116,16:40,3.0.6.0,3,whiteindirect,4,67,1364,minus1,0,b10.jpg,Judgeindirect,blacksquare2.gif,pic13.bmp,Mask.bmp,0112116,16:40,3.0.6.0,3,neutral,4,68,1156,plus1,0,GREY.bmp,Judgeindirect,blacksquare2.gif,pic70.bmp,Mask.bmp,0112116,16:40,3.0.6.0,3,neutral,4,69,594,plus1,0,GREY.bmp,Judgeindirect,blacksquare2.gif,pic22.bmp,Mask.bmp,0112116,16:40,3.0.6.0,3,neutral,4,70,2416,plus1,0,GREY.bmp,Judgeindirect,blacksquare2.gif,pic48.bmp,Mask.bmp,0112116,16:40,3.0.6.0,3,blackindirect,4,71,2249,plus1,0,b03.bmp,Judgeindirect,blacksquare2.gif,pic45.bmp,Mask.bmp,0112116,16:40,3.0.6.0,3,whiteindirect,4,72,2664,minus1,0,w08.bmp,Judgeindirect,blacksquare2.gif,pic17.bmp,Mask.bmp,0112116,16:40,3.0.6.0,3,whitedirect,6,1,4128,plus1,0,w06.bmp,Judgedirect,blacksquare2.gif,pic78.bmp,Mask.bmp,0112116,16:40,3.0.6.0,3,blackdirect,6,2,1388,minus1,0,b06.bmp,Judgedirect,blacksquare2.gif,pic113.bmp,Mask.bmp,0112116,16:40,3.0.6.0,3,whitedirect,6,3,1641,minus1,0,w09.bmp,Judgedirect,blacksquare2.gif,pic100.bmp,Mask.bmp,0112116,16:40,3.0.6.0,3,blackdirect,6,4,489,minus1,0,b10.bmp,Judgedirect,blacksquare2.gif,pic111.bmp,Mask.bmp,0112116,16:40,3.0.6.0,3,whitedirect,6,5,754,plus1,0,w05.bmp,Judgedirect,blacksquare2.gif,pic101.bmp,Mask.bmp,0112116,16:40,3.0.6.0,3,blackdirect,6,6,1200,minus1,0,b05.bmp,Judgedirect,blacksquare2.gif,pic109.bmp,Mask.bmp,0112116,16:40,3.0.6.0,3,whitedirect,6,7,1729,plus1,0,w04.bmp,Judgedirect,blacksquare2.gif,pic118.bmp,Mask.bmp,0112116,16:40,3.0.6.0,3,blackdirect,6,8,1072,plus1,0,b02.bmp,Judgedirect,blacksquare2.gif,pic114.bmp,Mask.bmp,0112116,16:40,3.0.6.0,3,whitedirect,6,9,1382,plus1,0,w07.bmp,Judgedirect,blacksquare2.gif,pic117.bmp,Mask.bmp,0112116,16:40,3.0.6.0,3,blackdirect,6,10,745,minus1,0,b03.bmp,Judgedirect,blacksquare2.gif,pic116.bmp,Mask.bmp,0112116,16:40,3.0.6.0,3,whitedirect,6,11,1109,plus1,0,w08.bmp,Judgedirect,blacksquare2.gif,pic82.bmp,Mask.bmp,0112116,16:40,3.0.6.0,3,blackdirect,6,12,1322,minus1,0,b07.bmp,Judgedirect,blacksquare2.gif,pic81.bmp,Mask.bmp,0112116,16:40,3.0.6.0,3,whitedirect,6,13,562,plus1,0,w03.bmp,Judgedirect,blacksquare2.gif,pic104.bmp,Mask.bmp,0112116,16:40,3.0.6.0,3,blackdirect,6,14,1524,minus2,0,b11.bmp,Judgedirect,blacksquare2.gif,pic110.bmp,Mask.bmp,0112116,16:40,3.0.6.0,3,whitedirect,6,15,1124,plus1,0,w01.bmp,Judgedirect,blacksquare2.gif,pic112.bmp,Mask.bmp,0112116,16:40,3.0.6.0,3,blackdirect,6,16,732,minus1,0,b04.bmp,Judgedirect,blacksquare2.gif,pic79.bmp,Mask.bmp,0112116,16:40,3.0.6.0,3,whitedirect,6,17,1621,minus1,0,b11.jpg,Judgedirect,blacksquare2.gif,pic108.bmp,Mask.bmp,0112116,16:40,3.0.6.0,3,blackdirect,6,18,808,plus1,0,b01.bmp,Judgedirect,blacksquare2.gif,pic105.bmp,Mask.bmp,0112116,16:40,3.0.6.0,3,whitedirect,6,19,1097,plus1,0,w02.bmp,Judgedirect,blacksquare2.gif,pic103.bmp,Mask.bmp,0112116,16:40,3.0.6.0,3,blackdirect,6,20,1100,plus1,0,b12.bmp,Judgedirect,blacksquare2.gif,pic107.bmp,Mask.bmp,0112116,16:40,3.0.6.0,3,whitedirect,6,21,1199,minus1,0,b12.jpg,Judgedirect,blacksquare2.gif,pic102.bmp,Mask.bmp,0112116,16:40,3.0.6.0,3,blackdirect,6,22,924,plus1,0,b09.bmp,Judgedirect,blacksquare2.gif,pic115.bmp,Mask.bmp,0112116,16:40,3.0.6.0,3,whitedirect,6,23,1445,plus1,0,b10.jpg,Judgedirect,blacksquare2.gif,pic80.bmp,Mask.bmp,0112116,16:40,3.0.6.0,3,blackdirect,6,24,1501,plus1,0,b08.bmp,Judgedirect,blacksquare2.gif,pic106.bmp,Mask.bmp,0112116,16:40,3.0.6.0,3,sesso,7,1,10681,2,1,0,demo,0,0,0,0112116,16:40,3.0.6.0,3,anni,7,1,10681,22,1,0,demo,0,0,0,0112116,16:40,3.0.6.0,3,etnia,7,1,10681,Caucasico,1,0,demo,0,0,0,0112116,17:04,3.0.6.0,4,practice,1,1,6300,57,1,sample.bmp,orient1,blacksquare2.gif,pic76.bmp,Mask.bmp,0112116,17:04,3.0.6.0,4,whitedirect,4,1,13574,plus2,0,w02.bmp,Judgedirect,blacksquare2.gif,pic80.bmp,Mask.bmp,0112116,17:04,3.0.6.0,4,blackdirect,4,2,3681,plus1,0,b07.bmp,Judgedirect,blacksquare2.gif,pic111.bmp,Mask.bmp,0112116,17:04,3.0.6.0,4,whitedirect,4,3,2875,plus1,0,b10.jpg,Judgedirect,blacksquare2.gif,pic115.bmp,Mask.bmp,0112116,17:04,3.0.6.0,4,blackdirect,4,4,1334,plus1,0,b10.bmp,Judgedirect,blacksquare2.gif,pic118.bmp,Mask.bmp,0112116,17:04,3.0.6.0,4,whitedirect,4,5,1409,plus1,0,w03.bmp,Judgedirect,blacksquare2.gif,pic105.bmp,Mask.bmp,0112116,17:04,3.0.6.0,4,blackdirect,4,6,1105,plus1,0,b02.bmp,Judgedirect,blacksquare2.gif,pic82.bmp,Mask.bmp,0112116,17:04,3.0.6.0,4,whitedirect,4,7,1740,plus2,0,w01.bmp,Judgedirect,blacksquare2.gif,pic81.bmp,Mask.bmp,0112116,17:04,3.0.6.0,4,blackdirect,4,8,775,plus1,0,b01.bmp,Judgedirect,blacksquare2.gif,pic102.bmp,Mask.bmp,0112116,17:04,3.0.6.0,4,whitedirect,4,9,1098,plus1,0,w09.bmp,Judgedirect,blacksquare2.gif,pic78.bmp,Mask.bmp,0112116,17:04,3.0.6.0,4,blackdirect,4,10,805,plus1,0,b04.bmp,Judgedirect,blacksquare2.gif,pic116.bmp,Mask.bmp,0112116,17:04,3.0.6.0,4,whitedirect,4,11,1142,plus1,0,w06.bmp,Judgedirect,blacksquare2.gif,pic114.bmp,Mask.bmp,0112116,17:04,3.0.6.0,4,blackdirect,4,12,833,plus1,0,b08.bmp,Judgedirect,blacksquare2.gif,pic113.bmp,Mask.bmp,0112116,17:04,3.0.6.0,4,whitedirect,4,13,744,plus1,0,w05.bmp,Judgedirect,blacksquare2.gif,pic106.bmp,Mask.bmp,0112116,17:04,3.0.6.0,4,blackdirect,4,14,699,plus1,0,b11.bmp,Judgedirect,blacksquare2.gif,pic100.bmp,Mask.bmp,0112116,17:04,3.0.6.0,4,whitedirect,4,15,1903,plus1,0,b12.jpg,Judgedirect,blacksquare2.gif,pic108.bmp,Mask.bmp,0112116,17:04,3.0.6.0,4,blackdirect,4,16,545,plus1,0,b06.bmp,Judgedirect,blacksquare2.gif,pic117.bmp,Mask.bmp,0112116,17:04,3.0.6.0,4,whitedirect,4,17,1573,plus1,0,b11.jpg,Judgedirect,blacksquare2.gif,pic112.bmp,Mask.bmp,0112116,17:04,3.0.6.0,4,blackdirect,4,18,541,plus1,0,b12.bmp,Judgedirect,blacksquare2.gif,pic110.bmp,Mask.bmp,0112116,17:04,3.0.6.0,4,whitedirect,4,19,3457,plus1,0,w04.bmp,Judgedirect,blacksquare2.gif,pic109.bmp,Mask.bmp,0112116,17:04,3.0.6.0,4,blackdirect,4,20,472,plus1,0,b09.bmp,Judgedirect,blacksquare2.gif,pic104.bmp,Mask.bmp,0112116,17:04,3.0.6.0,4,whitedirect,4,21,543,plus1,0,w08.bmp,Judgedirect,blacksquare2.gif,pic103.bmp,Mask.bmp,0112116,17:04,3.0.6.0,4,blackdirect,4,22,475,plus1,0,b05.bmp,Judgedirect,blacksquare2.gif,pic101.bmp,Mask.bmp,0112116,17:04,3.0.6.0,4,whitedirect,4,23,466,plus1,0,w07.bmp,Judgedirect,blacksquare2.gif,pic79.bmp,Mask.bmp,0112116,17:04,3.0.6.0,4,blackdirect,4,24,449,plus1,0,b03.bmp,Judgedirect,blacksquare2.gif,pic107.bmp,Mask.bmp,0112116,17:04,3.0.6.0,4,whiteindirect,6,1,4384,plus1,0,w06.bmp,Judgeindirect,blacksquare2.gif,pic7.bmp,Mask.bmp,0112116,17:04,3.0.6.0,4,blackindirect,6,2,2470,plus1,0,b02.bmp,Judgeindirect,blacksquare2.gif,pic20.bmp,Mask.bmp,0112116,17:04,3.0.6.0,4,whiteindirect,6,3,1770,plus1,0,w03.bmp,Judgeindirect,blacksquare2.gif,pic15.bmp,Mask.bmp,0112116,17:04,3.0.6.0,4,blackindirect,6,4,481,plus1,0,b11.bmp,Judgeindirect,blacksquare2.gif,pic55.bmp,Mask.bmp,0112116,17:04,3.0.6.0,4,whiteindirect,6,5,259,plus1,0,w02.bmp,Judgeindirect,blacksquare2.gif,pic50.bmp,Mask.bmp,0112116,17:04,3.0.6.0,4,blackindirect,6,6,535,plus1,0,b07.bmp,Judgeindirect,blacksquare2.gif,pic59.bmp,Mask.bmp,0112116,17:04,3.0.6.0,4,whiteindirect,6,7,1811,plus1,0,b12.jpg,Judgeindirect,blacksquare2.gif,pic5.bmp,Mask.bmp,0112116,17:04,3.0.6.0,4,blackindirect,6,8,643,plus1,0,b06.bmp,Judgeindirect,blacksquare2.gif,pic45.bmp,Mask.bmp,0112116,17:04,3.0.6.0,4,whiteindirect,6,9,420,plus1,0,b10.jpg,Judgeindirect,blacksquare2.gif,pic51.bmp,Mask.bmp,0112116,17:04,3.0.6.0,4,whiteindirect,6,10,1024,plus1,0,b11.jpg,Judgeindirect,blacksquare2.gif,pic68.bmp,Mask.bmp,0112116,17:04,3.0.6.0,4,neutral,6,11,315,plus1,0,GREY.bmp,Judgeindirect,blacksquare2.gif,pic19.bmp,Mask.bmp,0112116,17:04,3.0.6.0,4,neutral,6,12,562,plus1,0,GREY.bmp,Judgeindirect,blacksquare2.gif,pic22.bmp,Mask.bmp,0112116,17:04,3.0.6.0,4,whiteindirect,6,13,484,plus1,0,w07.bmp,Judgeindirect,blacksquare2.gif,pic10.bmp,Mask.bmp,0112116,17:04,3.0.6.0,4,blackindirect,6,14,469,plus1,0,b04.bmp,Judgeindirect,blacksquare2.gif,pic21.bmp,Mask.bmp,0112116,17:04,3.0.6.0,4,neutral,6,15,524,plus1,0,GREY.bmp,Judgeindirect,blacksquare2.gif,pic43.bmp,Mask.bmp,0112116,17:04,3.0.6.0,4,whiteindirect,6,16,549,plus1,0,w05.bmp,Judgeindirect,blacksquare2.gif,pic70.bmp,Mask.bmp,0112116,17:04,3.0.6.0,4,neutral,6,17,908,plus1,0,GREY.bmp,Judgeindirect,blacksquare2.gif,pic69.bmp,Mask.bmp,0112116,17:04,3.0.6.0,4,blackindirect,6,18,410,plus1,0,b08.bmp,Judgeindirect,blacksquare2.gif,pic14.bmp,Mask.bmp,0112116,17:04,3.0.6.0,4,whiteindirect,6,19,572,plus1,0,w01.bmp,Judgeindirect,blacksquare2.gif,pic11.bmp,Mask.bmp,0112116,17:04,3.0.6.0,4,blackindirect,6,20,725,plus1,0,b03.bmp,Judgeindirect,blacksquare2.gif,pic27.bmp,Mask.bmp,0112116,17:04,3.0.6.0,4,whiteindirect,6,21,622,plus1,0,w04.bmp,Judgeindirect,blacksquare2.gif,pic71.bmp,Mask.bmp,0112116,17:04,3.0.6.0,4,blackindirect,6,22,954,plus1,0,b05.bmp,Judgeindirect,blacksquare2.gif,pic26.bmp,Mask.bmp,0112116,17:04,3.0.6.0,4,neutral,6,23,1080,plus1,0,GREY.bmp,Judgeindirect,blacksquare2.gif,pic53.bmp,Mask.bmp,0112116,17:04,3.0.6.0,4,whiteindirect,6,24,568,plus1,0,w09.bmp,Judgeindirect,blacksquare2.gif,pic25.bmp,Mask.bmp,0112116,17:04,3.0.6.0,4,neutral,6,25,394,plus1,0,GREY.bmp,Judgeindirect,blacksquare2.gif,pic39.bmp,Mask.bmp,0112116,17:04,3.0.6.0,4,neutral,6,26,881,plus1,0,GREY.bmp,Judgeindirect,blacksquare2.gif,pic47.bmp,Mask.bmp,0112116,17:04,3.0.6.0,4,whiteindirect,6,27,617,plus1,0,w08.bmp,Judgeindirect,blacksquare2.gif,pic28.bmp,Mask.bmp,0112116,17:04,3.0.6.0,4,whiteindirect,6,28,509,plus1,0,w03.bmp,Judgeindirect,blacksquare2.gif,pic37.bmp,Mask.bmp,0112116,17:04,3.0.6.0,4,blackindirect,6,29,372,plus1,0,b10.bmp,Judgeindirect,blacksquare2.gif,pic66.bmp,Mask.bmp,0112116,17:04,3.0.6.0,4,whiteindirect,6,30,440,plus1,0,w05.bmp,Judgeindirect,blacksquare2.gif,pic40.bmp,Mask.bmp,0112116,17:04,3.0.6.0,4,whiteindirect,6,31,330,plus1,0,b12.jpg,Judgeindirect,blacksquare2.gif,pic13.bmp,Mask.bmp,0112116,17:04,3.0.6.0,4,neutral,6,32,467,plus1,0,GREY.bmp,Judgeindirect,blacksquare2.gif,pic3.bmp,Mask.bmp,0112116,17:04,3.0.6.0,4,neutral,6,33,346,plus1,0,GREY.bmp,Judgeindirect,blacksquare2.gif,pic44.bmp,Mask.bmp,0112116,17:04,3.0.6.0,4,neutral,6,34,601,plus1,0,GREY.bmp,Judgeindirect,blacksquare2.gif,pic36.bmp,Mask.bmp,0112116,17:04,3.0.6.0,4,neutral,6,35,466,plus1,0,GREY.bmp,Judgeindirect,blacksquare2.gif,pic73.bmp,Mask.bmp,0112116,17:04,3.0.6.0,4,neutral,6,36,785,plus1,0,GREY.bmp,Judgeindirect,blacksquare2.gif,pic75.bmp,Mask.bmp,0112116,17:04,3.0.6.0,4,neutral,6,37,861,plus1,0,GREY.bmp,Judgeindirect,blacksquare2.gif,pic23.bmp,Mask.bmp,0112116,17:04,3.0.6.0,4,whiteindirect,6,38,432,plus1,0,w06.bmp,Judgeindirect,blacksquare2.gif,pic18.bmp,Mask.bmp,0112116,17:04,3.0.6.0,4,blackindirect,6,39,559,plus1,0,b09.bmp,Judgeindirect,blacksquare2.gif,pic48.bmp,Mask.bmp,0112116,17:04,3.0.6.0,4,neutral,6,40,720,plus1,0,GREY.bmp,Judgeindirect,blacksquare2.gif,pic8.bmp,Mask.bmp,0112116,17:04,3.0.6.0,4,whiteindirect,6,41,425,plus1,0,w09.bmp,Judgeindirect,blacksquare2.gif,pic2.bmp,Mask.bmp,0112116,17:04,3.0.6.0,4,blackindirect,6,42,2080,plus1,0,b01.bmp,Judgeindirect,blacksquare2.gif,pic41.bmp,Mask.bmp,0112116,17:04,3.0.6.0,4,blackindirect,6,43,861,plus1,0,b12.bmp,Judgeindirect,blacksquare2.gif,pic38.bmp,Mask.bmp,0112116,17:04,3.0.6.0,4,neutral,6,44,456,plus1,0,GREY.bmp,Judgeindirect,blacksquare2.gif,pic29.bmp,Mask.bmp,0112116,17:04,3.0.6.0,4,neutral,6,45,1340,plus1,0,GREY.bmp,Judgeindirect,blacksquare2.gif,pic1.bmp,Mask.bmp,0112116,17:04,3.0.6.0,4,blackindirect,6,46,367,plus1,0,b05.bmp,Judgeindirect,blacksquare2.gif,pic56.bmp,Mask.bmp,0112116,17:04,3.0.6.0,4,whiteindirect,6,47,257,plus1,0,w07.bmp,Judgeindirect,blacksquare2.gif,pic60.bmp,Mask.bmp,0112116,17:04,3.0.6.0,4,neutral,6,48,605,plus1,0,GREY.bmp,Judgeindirect,blacksquare2.gif,pic54.bmp,Mask.bmp,0112116,17:04,3.0.6.0,4,blackindirect,6,49,295,plus1,0,b04.bmp,Judgeindirect,blacksquare2.gif,pic65.bmp,Mask.bmp,0112116,17:04,3.0.6.0,4,neutral,6,50,323,plus1,0,GREY.bmp,Judgeindirect,blacksquare2.gif,pic30.bmp,Mask.bmp,0112116,17:04,3.0.6.0,4,neutral,6,51,253,plus1,0,GREY.bmp,Judgeindirect,blacksquare2.gif,pic64.bmp,Mask.bmp,0112116,17:04,3.0.6.0,4,neutral,6,52,321,plus1,0,GREY.bmp,Judgeindirect,blacksquare2.gif,pic74.bmp,Mask.bmp,0112116,17:04,3.0.6.0,4,neutral,6,53,315,plus1,0,GREY.bmp,Judgeindirect,blacksquare2.gif,pic12.bmp,Mask.bmp,0112116,17:04,3.0.6.0,4,whiteindirect,6,54,490,plus1,0,b11.jpg,Judgeindirect,blacksquare2.gif,pic49.bmp,Mask.bmp,0112116,17:04,3.0.6.0,4,blackindirect,6,55,411,plus1,0,b11.bmp,Judgeindirect,blacksquare2.gif,pic24.bmp,Mask.bmp,0112116,17:04,3.0.6.0,4,neutral,6,56,365,plus1,0,GREY.bmp,Judgeindirect,blacksquare2.gif,pic62.bmp,Mask.bmp,0112116,17:04,3.0.6.0,4,neutral,6,57,374,plus1,0,GREY.bmp,Judgeindirect,blacksquare2.gif,pic9.bmp,Mask.bmp,0112116,17:04,3.0.6.0,4,blackindirect,6,58,426,plus1,0,b01.bmp,Judgeindirect,blacksquare2.gif,pic57.bmp,Mask.bmp,0112116,17:04,3.0.6.0,4,whiteindirect,6,59,377,plus1,0,w04.bmp,Judgeindirect,blacksquare2.gif,pic4.bmp,Mask.bmp,0112116,17:04,3.0.6.0,4,blackindirect,6,60,462,plus1,0,b09.bmp,Judgeindirect,blacksquare2.gif,pic34.bmp,Mask.bmp,0112116,17:04,3.0.6.0,4,blackindirect,6,61,489,plus1,0,b12.bmp,Judgeindirect,blacksquare2.gif,pic17.bmp,Mask.bmp,0112116,17:04,3.0.6.0,4,neutral,6,62,675,plus1,0,GREY.bmp,Judgeindirect,blacksquare2.gif,pic31.bmp,Mask.bmp,0112116,17:04,3.0.6.0,4,whiteindirect,6,63,666,plus1,0,w08.bmp,Judgeindirect,blacksquare2.gif,pic61.bmp,Mask.bmp,0112116,17:04,3.0.6.0,4,blackindirect,6,64,285,plus1,0,b06.bmp,Judgeindirect,blacksquare2.gif,pic52.bmp,Mask.bmp,0112116,17:04,3.0.6.0,4,blackindirect,6,65,295,plus1,0,b02.bmp,Judgeindirect,blacksquare2.gif,pic33.bmp,Mask.bmp,0112116,17:04,3.0.6.0,4,whiteindirect,6,66,596,plus1,0,b10.jpg,Judgeindirect,blacksquare2.gif,pic42.bmp,Mask.bmp,0112116,17:04,3.0.6.0,4,whiteindirect,6,67,506,plus1,0,w02.bmp,Judgeindirect,blacksquare2.gif,pic6.bmp,Mask.bmp,0112116,17:04,3.0.6.0,4,blackindirect,6,68,385,plus1,0,b08.bmp,Judgeindirect,blacksquare2.gif,pic16.bmp,Mask.bmp,0112116,17:04,3.0.6.0,4,blackindirect,6,69,360,plus1,0,b03.bmp,Judgeindirect,blacksquare2.gif,pic63.bmp,Mask.bmp,0112116,17:04,3.0.6.0,4,blackindirect,6,70,553,plus1,0,b07.bmp,Judgeindirect,blacksquare2.gif,pic32.bmp,Mask.bmp,0112116,17:04,3.0.6.0,4,blackindirect,6,71,696,plus1,0,b10.bmp,Judgeindirect,blacksquare2.gif,pic58.bmp,Mask.bmp,0112116,17:04,3.0.6.0,4,whiteindirect,6,72,772,plus1,0,w01.bmp,Judgeindirect,blacksquare2.gif,pic46.bmp,Mask.bmp,0112116,17:04,3.0.6.0,4,sesso,7,1,18586,2,1,0,demo,0,0,0,0112116,17:04,3.0.6.0,4,anni,7,1,18586,23,1,0,demo,0,0,0,0112116,17:04,3.0.6.0,4,etnia,7,1,18586,Altro,1,0,demo,0,0,0,0112116,17:35,3.0.6.0,5,practice,1,1,2980,57,1,sample.bmp,orient1,blacksquare2.gif,pic76.bmp,Mask.bmp,0112116,17:35,3.0.6.0,5,blackdirect,4,1,13434,minus1,0,b01.bmp,Judgedirect,blacksquare2.gif,pic112.bmp,Mask.bmp,0112116,17:35,3.0.6.0,5,whitedirect,4,2,2075,minus1,0,w04.bmp,Judgedirect,blacksquare2.gif,pic117.bmp,Mask.bmp,0112116,17:35,3.0.6.0,5,blackdirect,4,3,1736,minus1,0,b07.bmp,Judgedirect,blacksquare2.gif,pic100.bmp,Mask.bmp,0112116,17:35,3.0.6.0,5,whitedirect,4,4,650,plus1,0,w01.bmp,Judgedirect,blacksquare2.gif,pic78.bmp,Mask.bmp,0112116,17:35,3.0.6.0,5,blackdirect,4,5,955,plus1,0,b03.bmp,Judgedirect,blacksquare2.gif,pic111.bmp,Mask.bmp,0112116,17:35,3.0.6.0,5,whitedirect,4,6,1921,plus1,0,w03.bmp,Judgedirect,blacksquare2.gif,pic79.bmp,Mask.bmp,0112116,17:35,3.0.6.0,5,blackdirect,4,7,1961,minus1,0,b08.bmp,Judgedirect,blacksquare2.gif,pic109.bmp,Mask.bmp,0112116,17:35,3.0.6.0,5,whitedirect,4,8,1069,minus2,0,b10.jpg,Judgedirect,blacksquare2.gif,pic80.bmp,Mask.bmp,0112116,17:35,3.0.6.0,5,blackdirect,4,9,1251,minus1,0,b05.bmp,Judgedirect,blacksquare2.gif,pic82.bmp,Mask.bmp,0112116,17:35,3.0.6.0,5,whitedirect,4,10,1523,plus2,0,w09.bmp,Judgedirect,blacksquare2.gif,pic101.bmp,Mask.bmp,0112116,17:35,3.0.6.0,5,blackdirect,4,11,1195,plus2,0,b04.bmp,Judgedirect,blacksquare2.gif,pic114.bmp,Mask.bmp,0112116,17:35,3.0.6.0,5,whitedirect,4,12,1017,plus1,0,w07.bmp,Judgedirect,blacksquare2.gif,pic115.bmp,Mask.bmp,0112116,17:35,3.0.6.0,5,blackdirect,4,13,2148,plus1,0,b02.bmp,Judgedirect,blacksquare2.gif,pic107.bmp,Mask.bmp,0112116,17:35,3.0.6.0,5,whitedirect,4,14,1160,plus1,0,w06.bmp,Judgedirect,blacksquare2.gif,pic118.bmp,Mask.bmp,0112116,17:35,3.0.6.0,5,blackdirect,4,15,785,plus1,0,b12.bmp,Judgedirect,blacksquare2.gif,pic108.bmp,Mask.bmp,0112116,17:35,3.0.6.0,5,whitedirect,4,16,628,plus1,0,w02.bmp,Judgedirect,blacksquare2.gif,pic81.bmp,Mask.bmp,0112116,17:35,3.0.6.0,5,blackdirect,4,17,1555,minus1,0,b10.bmp,Judgedirect,blacksquare2.gif,pic106.bmp,Mask.bmp,0112116,17:35,3.0.6.0,5,whitedirect,4,18,696,minus2,0,b11.jpg,Judgedirect,blacksquare2.gif,pic103.bmp,Mask.bmp,0112116,17:35,3.0.6.0,5,blackdirect,4,19,668,minus2,0,b06.bmp,Judgedirect,blacksquare2.gif,pic110.bmp,Mask.bmp,0112116,17:35,3.0.6.0,5,whitedirect,4,20,906,plus2,0,w08.bmp,Judgedirect,blacksquare2.gif,pic116.bmp,Mask.bmp,0112116,17:35,3.0.6.0,5,blackdirect,4,21,1048,minus2,0,b11.bmp,Judgedirect,blacksquare2.gif,pic102.bmp,Mask.bmp,0112116,17:35,3.0.6.0,5,whitedirect,4,22,1545,plus1,0,w05.bmp,Judgedirect,blacksquare2.gif,pic113.bmp,Mask.bmp,0112116,17:35,3.0.6.0,5,blackdirect,4,23,1307,plus2,0,b09.bmp,Judgedirect,blacksquare2.gif,pic105.bmp,Mask.bmp,0112116,17:35,3.0.6.0,5,whitedirect,4,24,1137,minus1,0,b12.jpg,Judgedirect,blacksquare2.gif,pic104.bmp,Mask.bmp,0112116,17:35,3.0.6.0,5,neutral,6,1,1275,plus1,0,GREY.bmp,Judgeindirect,blacksquare2.gif,pic71.bmp,Mask.bmp,0112116,17:35,3.0.6.0,5,blackindirect,6,2,1153,plus1,0,b10.bmp,Judgeindirect,blacksquare2.gif,pic14.bmp,Mask.bmp,0112116,17:35,3.0.6.0,5,neutral,6,3,1414,plus1,0,GREY.bmp,Judgeindirect,blacksquare2.gif,pic26.bmp,Mask.bmp,0112116,17:35,3.0.6.0,5,whiteindirect,6,4,2001,plus2,0,w09.bmp,Judgeindirect,blacksquare2.gif,pic6.bmp,Mask.bmp,0112116,17:35,3.0.6.0,5,neutral,6,5,1224,plus1,0,GREY.bmp,Judgeindirect,blacksquare2.gif,pic52.bmp,Mask.bmp,0112116,17:35,3.0.6.0,5,blackindirect,6,6,1291,minus1,0,b04.bmp,Judgeindirect,blacksquare2.gif,pic7.bmp,Mask.bmp,0112116,17:35,3.0.6.0,5,blackindirect,6,7,979,minus1,0,b07.bmp,Judgeindirect,blacksquare2.gif,pic3.bmp,Mask.bmp,0112116,17:35,3.0.6.0,5,whiteindirect,6,8,1039,plus1,0,w08.bmp,Judgeindirect,blacksquare2.gif,pic40.bmp,Mask.bmp,0112116,17:35,3.0.6.0,5,blackindirect,6,9,1093,plus1,0,b09.bmp,Judgeindirect,blacksquare2.gif,pic72.bmp,Mask.bmp,0112116,17:35,3.0.6.0,5,neutral,6,10,2213,minus1,0,GREY.bmp,Judgeindirect,blacksquare2.gif,pic36.bmp,Mask.bmp,0112116,17:35,3.0.6.0,5,blackindirect,6,11,780,minus1,0,b01.bmp,Judgeindirect,blacksquare2.gif,pic69.bmp,Mask.bmp,0112116,17:35,3.0.6.0,5,blackindirect,6,12,839,plus1,0,b08.bmp,Judgeindirect,blacksquare2.gif,pic56.bmp,Mask.bmp,0112116,17:35,3.0.6.0,5,whiteindirect,6,13,784,minus1,0,w04.bmp,Judgeindirect,blacksquare2.gif,pic68.bmp,Mask.bmp,0112116,17:35,3.0.6.0,5,blackindirect,6,14,964,minus1,0,b03.bmp,Judgeindirect,blacksquare2.gif,pic57.bmp,Mask.bmp,0112116,17:35,3.0.6.0,5,blackindirect,6,15,1445,minus1,0,b05.bmp,Judgeindirect,blacksquare2.gif,pic29.bmp,Mask.bmp,0112116,17:35,3.0.6.0,5,whiteindirect,6,16,1589,minus2,0,b12.jpg,Judgeindirect,blacksquare2.gif,pic17.bmp,Mask.bmp,0112116,17:35,3.0.6.0,5,neutral,6,17,1258,plus1,0,GREY.bmp,Judgeindirect,blacksquare2.gif,pic60.bmp,Mask.bmp,0112116,17:35,3.0.6.0,5,neutral,6,18,1157,minus1,0,GREY.bmp,Judgeindirect,blacksquare2.gif,pic33.bmp,Mask.bmp,0112116,17:35,3.0.6.0,5,neutral,6,19,874,plus2,0,GREY.bmp,Judgeindirect,blacksquare2.gif,pic48.bmp,Mask.bmp,0112116,17:35,3.0.6.0,5,whiteindirect,6,20,1017,plus2,0,w03.bmp,Judgeindirect,blacksquare2.gif,pic5.bmp,Mask.bmp,0112116,17:35,3.0.6.0,5,neutral,6,21,884,plus1,0,GREY.bmp,Judgeindirect,blacksquare2.gif,pic47.bmp,Mask.bmp,0112116,17:35,3.0.6.0,5,blackindirect,6,22,1133,plus2,0,b02.bmp,Judgeindirect,blacksquare2.gif,pic20.bmp,Mask.bmp,0112116,17:35,3.0.6.0,5,neutral,6,23,581,plus1,0,GREY.bmp,Judgeindirect,blacksquare2.gif,pic42.bmp,Mask.bmp,0112116,17:35,3.0.6.0,5,blackindirect,6,24,1265,minus2,0,b06.bmp,Judgeindirect,blacksquare2.gif,pic70.bmp,Mask.bmp,0112116,17:35,3.0.6.0,5,blackindirect,6,25,860,minus1,0,b12.bmp,Judgeindirect,blacksquare2.gif,pic39.bmp,Mask.bmp,0112116,17:35,3.0.6.0,5,whiteindirect,6,26,1007,minus2,0,w06.bmp,Judgeindirect,blacksquare2.gif,pic23.bmp,Mask.bmp,0112116,17:35,3.0.6.0,5,neutral,6,27,1640,minus1,0,GREY.bmp,Judgeindirect,blacksquare2.gif,pic34.bmp,Mask.bmp,0112116,17:35,3.0.6.0,5,blackindirect,6,28,1061,plus2,0,b11.bmp,Judgeindirect,blacksquare2.gif,pic30.bmp,Mask.bmp,0112116,17:35,3.0.6.0,5,blackindirect,6,29,808,plus2,0,b11.bmp,Judgeindirect,blacksquare2.gif,pic45.bmp,Mask.bmp,0112116,17:35,3.0.6.0,5,whiteindirect,6,30,841,plus1,0,w02.bmp,Judgeindirect,blacksquare2.gif,pic12.bmp,Mask.bmp,0112116,17:35,3.0.6.0,5,whiteindirect,6,31,1026,plus1,0,w01.bmp,Judgeindirect,blacksquare2.gif,pic53.bmp,Mask.bmp,0112116,17:35,3.0.6.0,5,neutral,6,32,845,plus1,0,GREY.bmp,Judgeindirect,blacksquare2.gif,pic63.bmp,Mask.bmp,0112116,17:35,3.0.6.0,5,whiteindirect,6,33,1126,minus1,0,b11.jpg,Judgeindirect,blacksquare2.gif,pic11.bmp,Mask.bmp,0112116,17:35,3.0.6.0,5,whiteindirect,6,34,1215,plus1,0,w07.bmp,Judgeindirect,blacksquare2.gif,pic24.bmp,Mask.bmp,0112116,17:35,3.0.6.0,5,whiteindirect,6,35,1594,plus2,0,w05.bmp,Judgeindirect,blacksquare2.gif,pic13.bmp,Mask.bmp,0112116,17:35,3.0.6.0,5,blackindirect,6,36,815,plus1,0,b06.bmp,Judgeindirect,blacksquare2.gif,pic50.bmp,Mask.bmp,0112116,17:35,3.0.6.0,5,neutral,6,37,1530,minus1,0,GREY.bmp,Judgeindirect,blacksquare2.gif,pic37.bmp,Mask.bmp,0112116,17:35,3.0.6.0,5,whiteindirect,6,38,786,minus1,0,b10.jpg,Judgeindirect,blacksquare2.gif,pic67.bmp,Mask.bmp,0112116,17:35,3.0.6.0,5,whiteindirect,6,39,1272,minus2,0,w09.bmp,Judgeindirect,blacksquare2.gif,pic27.bmp,Mask.bmp,0112116,17:35,3.0.6.0,5,neutral,6,40,1302,minus1,0,GREY.bmp,Judgeindirect,blacksquare2.gif,pic62.bmp,Mask.bmp,0112116,17:35,3.0.6.0,5,blackindirect,6,41,817,plus1,0,b12.bmp,Judgeindirect,blacksquare2.gif,pic16.bmp,Mask.bmp,0112116,17:35,3.0.6.0,5,blackindirect,6,42,796,plus1,0,b01.bmp,Judgeindirect,blacksquare2.gif,pic54.bmp,Mask.bmp,0112116,17:35,3.0.6.0,5,neutral,6,43,883,minus1,0,GREY.bmp,Judgeindirect,blacksquare2.gif,pic1.bmp,Mask.bmp,0112116,17:35,3.0.6.0,5,whiteindirect,6,44,1092,plus2,0,b10.jpg,Judgeindirect,blacksquare2.gif,pic28.bmp,Mask.bmp,0112116,17:35,3.0.6.0,5,whiteindirect,6,45,1372,minus1,0,w08.bmp,Judgeindirect,blacksquare2.gif,pic22.bmp,Mask.bmp,0112116,17:35,3.0.6.0,5,neutral,6,46,1204,minus2,0,GREY.bmp,Judgeindirect,blacksquare2.gif,pic25.bmp,Mask.bmp,0112116,17:35,3.0.6.0,5,neutral,6,47,900,plus1,0,GREY.bmp,Judgeindirect,blacksquare2.gif,pic10.bmp,Mask.bmp,0112116,17:35,3.0.6.0,5,neutral,6,48,992,minus1,0,GREY.bmp,Judgeindirect,blacksquare2.gif,pic21.bmp,Mask.bmp,0112116,17:35,3.0.6.0,5,whiteindirect,6,49,1070,minus2,0,w01.bmp,Judgeindirect,blacksquare2.gif,pic2.bmp,Mask.bmp,0112116,17:35,3.0.6.0,5,whiteindirect,6,50,1132,plus2,0,b12.jpg,Judgeindirect,blacksquare2.gif,pic55.bmp,Mask.bmp,0112116,17:35,3.0.6.0,5,neutral,6,51,1268,minus1,0,GREY.bmp,Judgeindirect,blacksquare2.gif,pic58.bmp,Mask.bmp,0112116,17:35,3.0.6.0,5,blackindirect,6,52,1018,minus1,0,b04.bmp,Judgeindirect,blacksquare2.gif,pic61.bmp,Mask.bmp,0112116,17:35,3.0.6.0,5,blackindirect,6,53,781,plus1,0,b03.bmp,Judgeindirect,blacksquare2.gif,pic59.bmp,Mask.bmp,0112116,17:35,3.0.6.0,5,whiteindirect,6,54,1113,plus1,0,w07.bmp,Judgeindirect,blacksquare2.gif,pic44.bmp,Mask.bmp,0112116,17:35,3.0.6.0,5,whiteindirect,6,55,2007,minus2,0,w02.bmp,Judgeindirect,blacksquare2.gif,pic38.bmp,Mask.bmp,0112116,17:35,3.0.6.0,5,neutral,6,56,1494,minus1,0,GREY.bmp,Judgeindirect,blacksquare2.gif,pic51.bmp,Mask.bmp,0112116,17:35,3.0.6.0,5,neutral,6,57,1272,minus1,0,GREY.bmp,Judgeindirect,blacksquare2.gif,pic64.bmp,Mask.bmp,0112116,17:35,3.0.6.0,5,blackindirect,6,58,1542,minus1,0,b08.bmp,Judgeindirect,blacksquare2.gif,pic31.bmp,Mask.bmp,0112116,17:35,3.0.6.0,5,neutral,6,59,1248,minus2,0,GREY.bmp,Judgeindirect,blacksquare2.gif,pic46.bmp,Mask.bmp,0112116,17:35,3.0.6.0,5,blackindirect,6,60,1104,minus2,0,b07.bmp,Judgeindirect,blacksquare2.gif,pic73.bmp,Mask.bmp,0112116,17:35,3.0.6.0,5,blackindirect,6,61,996,minus1,0,b02.bmp,Judgeindirect,blacksquare2.gif,pic9.bmp,Mask.bmp,0112116,17:35,3.0.6.0,5,whiteindirect,6,62,1218,plus1,0,b11.jpg,Judgeindirect,blacksquare2.gif,pic4.bmp,Mask.bmp,0112116,17:35,3.0.6.0,5,neutral,6,63,1660,minus1,0,GREY.bmp,Judgeindirect,blacksquare2.gif,pic49.bmp,Mask.bmp,0112116,17:35,3.0.6.0,5,neutral,6,64,1863,plus2,0,GREY.bmp,Judgeindirect,blacksquare2.gif,pic32.bmp,Mask.bmp,0112116,17:35,3.0.6.0,5,neutral,6,65,769,plus1,0,GREY.bmp,Judgeindirect,blacksquare2.gif,pic19.bmp,Mask.bmp,0112116,17:35,3.0.6.0,5,blackindirect,6,66,1938,plus1,0,b09.bmp,Judgeindirect,blacksquare2.gif,pic8.bmp,Mask.bmp,0112116,17:35,3.0.6.0,5,whiteindirect,6,67,908,plus1,0,w06.bmp,Judgeindirect,blacksquare2.gif,pic66.bmp,Mask.bmp,0112116,17:35,3.0.6.0,5,blackindirect,6,68,962,minus1,0,b05.bmp,Judgeindirect,blacksquare2.gif,pic43.bmp,Mask.bmp,0112116,17:35,3.0.6.0,5,blackindirect,6,69,1699,minus2,0,b10.bmp,Judgeindirect,blacksquare2.gif,pic65.bmp,Mask.bmp,0112116,17:35,3.0.6.0,5,whiteindirect,6,70,949,minus1,0,w05.bmp,Judgeindirect,blacksquare2.gif,pic75.bmp,Mask.bmp,0112116,17:35,3.0.6.0,5,whiteindirect,6,71,1403,minus2,0,w03.bmp,Judgeindirect,blacksquare2.gif,pic74.bmp,Mask.bmp,0112116,17:35,3.0.6.0,5,whiteindirect,6,72,915,minus2,0,w04.bmp,Judgeindirect,blacksquare2.gif,pic18.bmp,Mask.bmp,0112116,17:35,3.0.6.0,5,sesso,7,1,16827,2,1,0,demo,0,0,0,0112116,17:35,3.0.6.0,5,anni,7,1,16827,25,1,0,demo,0,0,0,0112116,17:35,3.0.6.0,5,etnia,7,1,16827,Altro,1,0,demo,0,0,0,0112416,11:26,3.0.6.0,6,practice,1,1,15602,57,1,sample.bmp,orient1,blacksquare2.gif,pic76.bmp,Mask.bmp,0112416,11:26,3.0.6.0,6,whiteindirect,4,1,9326,plus1,0,w09.bmp,Judgeindirect,blacksquare2.gif,pic9.bmp,Mask.bmp,0112416,11:26,3.0.6.0,6,whiteindirect,4,2,5242,minus1,0,w04.bmp,Judgeindirect,blacksquare2.gif,pic43.bmp,Mask.bmp,0112416,11:26,3.0.6.0,6,blackindirect,4,3,3805,plus1,0,b11.bmp,Judgeindirect,blacksquare2.gif,pic33.bmp,Mask.bmp,0112416,11:26,3.0.6.0,6,blackindirect,4,4,2108,plus2,0,b12.bmp,Judgeindirect,blacksquare2.gif,pic22.bmp,Mask.bmp,0112416,11:26,3.0.6.0,6,blackindirect,4,5,2128,plus1,0,b02.bmp,Judgeindirect,blacksquare2.gif,pic27.bmp,Mask.bmp,0112416,11:26,3.0.6.0,6,whiteindirect,4,6,1831,minus1,0,b11.jpg,Judgeindirect,blacksquare2.gif,pic67.bmp,Mask.bmp,0112416,11:26,3.0.6.0,6,blackindirect,4,7,1732,plus2,0,b08.bmp,Judgeindirect,blacksquare2.gif,pic40.bmp,Mask.bmp,0112416,11:26,3.0.6.0,6,neutral,4,8,2947,plus1,0,GREY.bmp,Judgeindirect,blacksquare2.gif,pic26.bmp,Mask.bmp,0112416,11:26,3.0.6.0,6,blackindirect,4,9,3198,minus1,0,b09.bmp,Judgeindirect,blacksquare2.gif,pic13.bmp,Mask.bmp,0112416,11:26,3.0.6.0,6,whiteindirect,4,10,1865,plus1,0,w05.bmp,Judgeindirect,blacksquare2.gif,pic1.bmp,Mask.bmp,0112416,11:26,3.0.6.0,6,whiteindirect,4,11,2683,plus1,0,w06.bmp,Judgeindirect,blacksquare2.gif,pic63.bmp,Mask.bmp,0112416,11:26,3.0.6.0,6,neutral,4,12,2913,plus2,0,GREY.bmp,Judgeindirect,blacksquare2.gif,pic6.bmp,Mask.bmp,0112416,11:26,3.0.6.0,6,whiteindirect,4,13,3932,minus1,0,w01.bmp,Judgeindirect,blacksquare2.gif,pic52.bmp,Mask.bmp,0112416,11:26,3.0.6.0,6,whiteindirect,4,14,3752,plus1,0,w08.bmp,Judgeindirect,blacksquare2.gif,pic51.bmp,Mask.bmp,0112416,11:26,3.0.6.0,6,whiteindirect,4,15,2996,minus1,0,b12.jpg,Judgeindirect,blacksquare2.gif,pic60.bmp,Mask.bmp,0112416,11:26,3.0.6.0,6,neutral,4,16,2701,minus1,0,GREY.bmp,Judgeindirect,blacksquare2.gif,pic17.bmp,Mask.bmp,0112416,11:26,3.0.6.0,6,blackindirect,4,17,1997,plus1,0,b03.bmp,Judgeindirect,blacksquare2.gif,pic21.bmp,Mask.bmp,0112416,11:26,3.0.6.0,6,blackindirect,4,18,1933,plus2,0,b04.bmp,Judgeindirect,blacksquare2.gif,pic68.bmp,Mask.bmp,0112416,11:26,3.0.6.0,6,blackindirect,4,19,1580,minus1,0,b05.bmp,Judgeindirect,blacksquare2.gif,pic56.bmp,Mask.bmp,0112416,11:26,3.0.6.0,6,whiteindirect,4,20,3577,plus1,0,w02.bmp,Judgeindirect,blacksquare2.gif,pic61.bmp,Mask.bmp,0112416,11:26,3.0.6.0,6,neutral,4,21,2683,minus1,0,GREY.bmp,Judgeindirect,blacksquare2.gif,pic69.bmp,Mask.bmp,0112416,11:26,3.0.6.0,6,blackindirect,4,22,3073,plus1,0,b01.bmp,Judgeindirect,blacksquare2.gif,pic45.bmp,Mask.bmp,0112416,11:26,3.0.6.0,6,whiteindirect,4,23,2252,plus2,0,w07.bmp,Judgeindirect,blacksquare2.gif,pic57.bmp,Mask.bmp,0112416,11:26,3.0.6.0,6,whiteindirect,4,24,2130,plus2,0,b10.jpg,Judgeindirect,blacksquare2.gif,pic29.bmp,Mask.bmp,0112416,11:26,3.0.6.0,6,blackindirect,4,25,1772,minus1,0,b07.bmp,Judgeindirect,blacksquare2.gif,pic36.bmp,Mask.bmp,0112416,11:26,3.0.6.0,6,neutral,4,26,1129,minus2,0,GREY.bmp,Judgeindirect,blacksquare2.gif,pic14.bmp,Mask.bmp,0112416,11:26,3.0.6.0,6,neutral,4,27,1276,minus1,0,GREY.bmp,Judgeindirect,blacksquare2.gif,pic70.bmp,Mask.bmp,0112416,11:26,3.0.6.0,6,neutral,4,28,1489,plus1,0,GREY.bmp,Judgeindirect,blacksquare2.gif,pic19.bmp,Mask.bmp,0112416,11:26,3.0.6.0,6,blackindirect,4,29,2409,plus1,0,b06.bmp,Judgeindirect,blacksquare2.gif,pic53.bmp,Mask.bmp,0112416,11:26,3.0.6.0,6,blackindirect,4,30,1627,minus1,0,b10.bmp,Judgeindirect,blacksquare2.gif,pic58.bmp,Mask.bmp,0112416,11:26,3.0.6.0,6,blackindirect,4,31,2274,plus1,0,b12.bmp,Judgeindirect,blacksquare2.gif,pic3.bmp,Mask.bmp,0112416,11:26,3.0.6.0,6,blackindirect,4,32,1897,minus2,0,b03.bmp,Judgeindirect,blacksquare2.gif,pic75.bmp,Mask.bmp,0112416,11:26,3.0.6.0,6,blackindirect,4,33,2101,plus1,0,b02.bmp,Judgeindirect,blacksquare2.gif,pic42.bmp,Mask.bmp,0112416,11:26,3.0.6.0,6,neutral,4,34,1530,plus2,0,GREY.bmp,Judgeindirect,blacksquare2.gif,pic41.bmp,Mask.bmp,0112416,11:26,3.0.6.0,6,neutral,4,35,1564,minus1,0,GREY.bmp,Judgeindirect,blacksquare2.gif,pic65.bmp,Mask.bmp,0112416,11:26,3.0.6.0,6,whiteindirect,4,36,1652,plus1,0,w03.bmp,Judgeindirect,blacksquare2.gif,pic11.bmp,Mask.bmp,0112416,11:26,3.0.6.0,6,neutral,4,37,2124,minus1,0,GREY.bmp,Judgeindirect,blacksquare2.gif,pic5.bmp,Mask.bmp,0112416,11:26,3.0.6.0,6,whiteindirect,4,38,1733,minus2,0,w03.bmp,Judgeindirect,blacksquare2.gif,pic38.bmp,Mask.bmp,0112416,11:26,3.0.6.0,6,neutral,4,39,1869,minus1,0,GREY.bmp,Judgeindirect,blacksquare2.gif,pic37.bmp,Mask.bmp,0112416,11:26,3.0.6.0,6,blackindirect,4,40,1060,minus1,0,b05.bmp,Judgeindirect,blacksquare2.gif,pic4.bmp,Mask.bmp,0112416,11:26,3.0.6.0,6,neutral,4,41,975,plus1,0,GREY.bmp,Judgeindirect,blacksquare2.gif,pic32.bmp,Mask.bmp,0112416,11:26,3.0.6.0,6,neutral,4,42,1157,plus1,0,GREY.bmp,Judgeindirect,blacksquare2.gif,pic66.bmp,Mask.bmp,0112416,11:26,3.0.6.0,6,neutral,4,43,1499,minus1,0,GREY.bmp,Judgeindirect,blacksquare2.gif,pic47.bmp,Mask.bmp,0112416,11:26,3.0.6.0,6,whiteindirect,4,44,1525,minus2,0,w07.bmp,Judgeindirect,blacksquare2.gif,pic30.bmp,Mask.bmp,0112416,11:26,3.0.6.0,6,neutral,4,45,1880,plus1,0,GREY.bmp,Judgeindirect,blacksquare2.gif,pic18.bmp,Mask.bmp,0112416,11:26,3.0.6.0,6,neutral,4,46,1423,plus1,0,GREY.bmp,Judgeindirect,blacksquare2.gif,pic16.bmp,Mask.bmp,0112416,11:26,3.0.6.0,6,blackindirect,4,47,1421,minus1,0,b09.bmp,Judgeindirect,blacksquare2.gif,pic39.bmp,Mask.bmp,0112416,11:26,3.0.6.0,6,whiteindirect,4,48,1626,plus1,0,w09.bmp,Judgeindirect,blacksquare2.gif,pic12.bmp,Mask.bmp,0112416,11:26,3.0.6.0,6,whiteindirect,4,49,1735,minus1,0,w04.bmp,Judgeindirect,blacksquare2.gif,pic72.bmp,Mask.bmp,0112416,11:26,3.0.6.0,6,whiteindirect,4,50,1700,minus1,0,w06.bmp,Judgeindirect,blacksquare2.gif,pic8.bmp,Mask.bmp,0112416,11:26,3.0.6.0,6,neutral,4,51,1515,plus1,0,GREY.bmp,Judgeindirect,blacksquare2.gif,pic44.bmp,Mask.bmp,0112416,11:26,3.0.6.0,6,blackindirect,4,52,1867,minus2,0,b04.bmp,Judgeindirect,blacksquare2.gif,pic48.bmp,Mask.bmp,0112416,11:26,3.0.6.0,6,blackindirect,4,53,2157,minus1,0,b11.bmp,Judgeindirect,blacksquare2.gif,pic50.bmp,Mask.bmp,0112416,11:26,3.0.6.0,6,blackindirect,4,54,1657,plus1,0,b01.bmp,Judgeindirect,blacksquare2.gif,pic54.bmp,Mask.bmp,0112416,11:26,3.0.6.0,6,neutral,4,55,1694,minus1,0,GREY.bmp,Judgeindirect,blacksquare2.gif,pic62.bmp,Mask.bmp,0112416,11:26,3.0.6.0,6,whiteindirect,4,56,1526,minus2,0,w01.bmp,Judgeindirect,blacksquare2.gif,pic34.bmp,Mask.bmp,0112416,11:26,3.0.6.0,6,blackindirect,4,57,2022,plus1,0,b06.bmp,Judgeindirect,blacksquare2.gif,pic24.bmp,Mask.bmp,0112416,11:26,3.0.6.0,6,blackindirect,4,58,1442,minus1,0,b07.bmp,Judgeindirect,blacksquare2.gif,pic55.bmp,Mask.bmp,0112416,11:26,3.0.6.0,6,blackindirect,4,59,3074,plus1,0,b08.bmp,Judgeindirect,blacksquare2.gif,pic46.bmp,Mask.bmp,0112416,11:26,3.0.6.0,6,neutral,4,60,1607,minus2,0,GREY.bmp,Judgeindirect,blacksquare2.gif,pic74.bmp,Mask.bmp,0112416,11:26,3.0.6.0,6,whiteindirect,4,61,1783,minus1,0,w05.bmp,Judgeindirect,blacksquare2.gif,pic25.bmp,Mask.bmp,0112416,11:26,3.0.6.0,6,neutral,4,62,2532,minus1,0,GREY.bmp,Judgeindirect,blacksquare2.gif,pic28.bmp,Mask.bmp,0112416,11:26,3.0.6.0,6,neutral,4,63,2093,plus1,0,GREY.bmp,Judgeindirect,blacksquare2.gif,pic23.bmp,Mask.bmp,0112416,11:26,3.0.6.0,6,whiteindirect,4,64,2988,plus2,0,w02.bmp,Judgeindirect,blacksquare2.gif,pic49.bmp,Mask.bmp,0112416,11:26,3.0.6.0,6,whiteindirect,4,65,1431,minus2,0,b11.jpg,Judgeindirect,blacksquare2.gif,pic20.bmp,Mask.bmp,0112416,11:26,3.0.6.0,6,neutral,4,66,1108,minus1,0,GREY.bmp,Judgeindirect,blacksquare2.gif,pic7.bmp,Mask.bmp,0112416,11:26,3.0.6.0,6,neutral,4,67,1013,minus1,0,GREY.bmp,Judgeindirect,blacksquare2.gif,pic31.bmp,Mask.bmp,0112416,11:26,3.0.6.0,6,whiteindirect,4,68,1224,plus1,0,b10.jpg,Judgeindirect,blacksquare2.gif,pic71.bmp,Mask.bmp,0112416,11:26,3.0.6.0,6,whiteindirect,4,69,1091,plus1,0,b12.jpg,Judgeindirect,blacksquare2.gif,pic64.bmp,Mask.bmp,0112416,11:26,3.0.6.0,6,blackindirect,4,70,1371,minus1,0,b10.bmp,Judgeindirect,blacksquare2.gif,pic2.bmp,Mask.bmp,0112416,11:26,3.0.6.0,6,neutral,4,71,1110,minus1,0,GREY.bmp,Judgeindirect,blacksquare2.gif,pic15.bmp,Mask.bmp,0112416,11:26,3.0.6.0,6,whiteindirect,4,72,2358,minus2,0,w08.bmp,Judgeindirect,blacksquare2.gif,pic10.bmp,Mask.bmp,0112416,11:26,3.0.6.0,6,blackdirect,6,1,2741,minus1,0,b07.bmp,Judgedirect,blacksquare2.gif,pic112.bmp,Mask.bmp,0112416,11:26,3.0.6.0,6,whitedirect,6,2,909,minus1,0,w07.bmp,Judgedirect,blacksquare2.gif,pic81.bmp,Mask.bmp,0112416,11:26,3.0.6.0,6,blackdirect,6,3,1443,minus1,0,b04.bmp,Judgedirect,blacksquare2.gif,pic101.bmp,Mask.bmp,0112416,11:26,3.0.6.0,6,whitedirect,6,4,2094,plus1,0,w01.bmp,Judgedirect,blacksquare2.gif,pic105.bmp,Mask.bmp,0112416,11:26,3.0.6.0,6,blackdirect,6,5,1759,plus2,0,b08.bmp,Judgedirect,blacksquare2.gif,pic109.bmp,Mask.bmp,0112416,11:26,3.0.6.0,6,whitedirect,6,6,887,minus1,0,b11.jpg,Judgedirect,blacksquare2.gif,pic118.bmp,Mask.bmp,0112416,11:26,3.0.6.0,6,blackdirect,6,7,1176,plus1,0,b09.bmp,Judgedirect,blacksquare2.gif,pic115.bmp,Mask.bmp,0112416,11:26,3.0.6.0,6,whitedirect,6,8,1397,plus1,0,w08.bmp,Judgedirect,blacksquare2.gif,pic114.bmp,Mask.bmp,0112416,11:26,3.0.6.0,6,blackdirect,6,9,1315,plus1,0,b03.bmp,Judgedirect,blacksquare2.gif,pic113.bmp,Mask.bmp,0112416,11:26,3.0.6.0,6,whitedirect,6,10,1851,plus1,0,w06.bmp,Judgedirect,blacksquare2.gif,pic108.bmp,Mask.bmp,0112416,11:26,3.0.6.0,6,blackdirect,6,11,1613,plus1,0,b05.bmp,Judgedirect,blacksquare2.gif,pic111.bmp,Mask.bmp,0112416,11:26,3.0.6.0,6,whitedirect,6,12,1149,minus1,0,w03.bmp,Judgedirect,blacksquare2.gif,pic82.bmp,Mask.bmp,0112416,11:26,3.0.6.0,6,blackdirect,6,13,1261,plus1,0,b12.bmp,Judgedirect,blacksquare2.gif,pic103.bmp,Mask.bmp,0112416,11:26,3.0.6.0,6,whitedirect,6,14,1507,plus1,0,b12.jpg,Judgedirect,blacksquare2.gif,pic100.bmp,Mask.bmp,0112416,11:26,3.0.6.0,6,blackdirect,6,15,1256,plus1,0,b02.bmp,Judgedirect,blacksquare2.gif,pic106.bmp,Mask.bmp,0112416,11:26,3.0.6.0,6,whitedirect,6,16,1501,plus1,0,w05.bmp,Judgedirect,blacksquare2.gif,pic79.bmp,Mask.bmp,0112416,11:26,3.0.6.0,6,blackdirect,6,17,3328,plus1,0,b06.bmp,Judgedirect,blacksquare2.gif,pic102.bmp,Mask.bmp,0112416,11:26,3.0.6.0,6,whitedirect,6,18,1141,minus1,0,w04.bmp,Judgedirect,blacksquare2.gif,pic107.bmp,Mask.bmp,0112416,11:26,3.0.6.0,6,blackdirect,6,19,1235,minus1,0,b11.bmp,Judgedirect,blacksquare2.gif,pic110.bmp,Mask.bmp,0112416,11:26,3.0.6.0,6,whitedirect,6,20,1443,minus1,0,w02.bmp,Judgedirect,blacksquare2.gif,pic80.bmp,Mask.bmp,0112416,11:26,3.0.6.0,6,blackdirect,6,21,830,plus1,0,b10.bmp,Judgedirect,blacksquare2.gif,pic78.bmp,Mask.bmp,0112416,11:26,3.0.6.0,6,whitedirect,6,22,1391,plus1,0,b10.jpg,Judgedirect,blacksquare2.gif,pic104.bmp,Mask.bmp,0112416,11:26,3.0.6.0,6,blackdirect,6,23,1636,minus1,0,b01.bmp,Judgedirect,blacksquare2.gif,pic116.bmp,Mask.bmp,0112416,11:26,3.0.6.0,6,whitedirect,6,24,1833,plus1,0,w09.bmp,Judgedirect,blacksquare2.gif,pic117.bmp,Mask.bmp,0112416,11:26,3.0.6.0,6,sesso,7,1,14228,2,1,0,demo,0,0,0,0112416,11:26,3.0.6.0,6,anni,7,1,14228,23,1,0,demo,0,0,0,0112416,11:26,3.0.6.0,6,etnia,7,1,14228,Caucasico,1,0,demo,0,0,0,0112416,12:07,3.0.6.0,7,practice,1,1,8313,57,1,sample.bmp,orient1,blacksquare2.gif,pic76.bmp,Mask.bmp,0112416,12:07,3.0.6.0,7,whiteindirect,4,1,5872,plus1,0,w04.bmp,Judgeindirect,blacksquare2.gif,pic48.bmp,Mask.bmp,0112416,12:07,3.0.6.0,7,blackindirect,4,2,4476,plus1,0,b07.bmp,Judgeindirect,blacksquare2.gif,pic5.bmp,Mask.bmp,0112416,12:07,3.0.6.0,7,neutral,4,3,6228,plus2,0,GREY.bmp,Judgeindirect,blacksquare2.gif,pic53.bmp,Mask.bmp,0112416,12:07,3.0.6.0,7,blackindirect,4,4,1680,plus2,0,b02.bmp,Judgeindirect,blacksquare2.gif,pic30.bmp,Mask.bmp,0112416,12:07,3.0.6.0,7,whiteindirect,4,5,4285,plus1,0,w01.bmp,Judgeindirect,blacksquare2.gif,pic74.bmp,Mask.bmp,0112416,12:07,3.0.6.0,7,whiteindirect,4,6,2272,plus2,0,w06.bmp,Judgeindirect,blacksquare2.gif,pic44.bmp,Mask.bmp,0112416,12:07,3.0.6.0,7,whiteindirect,4,7,1916,minus2,0,w08.bmp,Judgeindirect,blacksquare2.gif,pic52.bmp,Mask.bmp,0112416,12:07,3.0.6.0,7,blackindirect,4,8,2673,plus1,0,b05.bmp,Judgeindirect,blacksquare2.gif,pic32.bmp,Mask.bmp,0112416,12:07,3.0.6.0,7,whiteindirect,4,9,1740,plus2,0,b11.jpg,Judgeindirect,blacksquare2.gif,pic51.bmp,Mask.bmp,0112416,12:07,3.0.6.0,7,neutral,4,10,1838,minus1,0,GREY.bmp,Judgeindirect,blacksquare2.gif,pic9.bmp,Mask.bmp,0112416,12:07,3.0.6.0,7,neutral,4,11,1507,plus1,0,GREY.bmp,Judgeindirect,blacksquare2.gif,pic56.bmp,Mask.bmp,0112416,12:07,3.0.6.0,7,neutral,4,12,1176,plus2,0,GREY.bmp,Judgeindirect,blacksquare2.gif,pic20.bmp,Mask.bmp,0112416,12:07,3.0.6.0,7,neutral,4,13,4155,minus1,0,GREY.bmp,Judgeindirect,blacksquare2.gif,pic29.bmp,Mask.bmp,0112416,12:07,3.0.6.0,7,blackindirect,4,14,1005,minus1,0,b10.bmp,Judgeindirect,blacksquare2.gif,pic40.bmp,Mask.bmp,0112416,12:07,3.0.6.0,7,neutral,4,15,2109,plus2,0,GREY.bmp,Judgeindirect,blacksquare2.gif,pic14.bmp,Mask.bmp,0112416,12:07,3.0.6.0,7,neutral,4,16,2121,minus2,0,GREY.bmp,Judgeindirect,blacksquare2.gif,pic72.bmp,Mask.bmp,0112416,12:07,3.0.6.0,7,neutral,4,17,816,minus2,0,GREY.bmp,Judgeindirect,blacksquare2.gif,pic3.bmp,Mask.bmp,0112416,12:07,3.0.6.0,7,whiteindirect,4,18,964,minus2,0,w09.bmp,Judgeindirect,blacksquare2.gif,pic70.bmp,Mask.bmp,0112416,12:07,3.0.6.0,7,whiteindirect,4,19,2053,plus1,0,b10.jpg,Judgeindirect,blacksquare2.gif,pic49.bmp,Mask.bmp,0112416,12:07,3.0.6.0,7,neutral,4,20,2020,minus1,0,GREY.bmp,Judgeindirect,blacksquare2.gif,pic27.bmp,Mask.bmp,0112416,12:07,3.0.6.0,7,whiteindirect,4,21,1301,plus1,0,b12.jpg,Judgeindirect,blacksquare2.gif,pic24.bmp,Mask.bmp,0112416,12:07,3.0.6.0,7,neutral,4,22,1440,minus2,0,GREY.bmp,Judgeindirect,blacksquare2.gif,pic6.bmp,Mask.bmp,0112416,12:07,3.0.6.0,7,blackindirect,4,23,1392,plus2,0,b06.bmp,Judgeindirect,blacksquare2.gif,pic28.bmp,Mask.bmp,0112416,12:07,3.0.6.0,7,blackindirect,4,24,1974,plus2,0,b08.bmp,Judgeindirect,blacksquare2.gif,pic63.bmp,Mask.bmp,0112416,12:07,3.0.6.0,7,blackindirect,4,25,1332,plus2,0,b12.bmp,Judgeindirect,blacksquare2.gif,pic18.bmp,Mask.bmp,0112416,12:07,3.0.6.0,7,blackindirect,4,26,645,plus2,0,b01.bmp,Judgeindirect,blacksquare2.gif,pic62.bmp,Mask.bmp,0112416,12:07,3.0.6.0,7,whiteindirect,4,27,1222,plus2,0,w05.bmp,Judgeindirect,blacksquare2.gif,pic69.bmp,Mask.bmp,0112416,12:07,3.0.6.0,7,whiteindirect,4,28,793,plus2,0,w03.bmp,Judgeindirect,blacksquare2.gif,pic15.bmp,Mask.bmp,0112416,12:07,3.0.6.0,7,whiteindirect,4,29,1407,minus1,0,w07.bmp,Judgeindirect,blacksquare2.gif,pic2.bmp,Mask.bmp,0112416,12:07,3.0.6.0,7,whiteindirect,4,30,1927,minus2,0,w02.bmp,Judgeindirect,blacksquare2.gif,pic73.bmp,Mask.bmp,0112416,12:07,3.0.6.0,7,neutral,4,31,5070,minus2,0,GREY.bmp,Judgeindirect,blacksquare2.gif,pic7.bmp,Mask.bmp,0112416,12:07,3.0.6.0,7,blackindirect,4,32,1572,plus1,0,b04.bmp,Judgeindirect,blacksquare2.gif,pic61.bmp,Mask.bmp,0112416,12:07,3.0.6.0,7,blackindirect,4,33,1451,minus1,0,b09.bmp,Judgeindirect,blacksquare2.gif,pic19.bmp,Mask.bmp,0112416,12:07,3.0.6.0,7,whiteindirect,4,34,891,minus1,0,w08.bmp,Judgeindirect,blacksquare2.gif,pic34.bmp,Mask.bmp,0112416,12:07,3.0.6.0,7,blackindirect,4,35,1052,minus1,0,b11.bmp,Judgeindirect,blacksquare2.gif,pic4.bmp,Mask.bmp,0112416,12:07,3.0.6.0,7,blackindirect,4,36,1176,plus1,0,b03.bmp,Judgeindirect,blacksquare2.gif,pic10.bmp,Mask.bmp,0112416,12:07,3.0.6.0,7,neutral,4,37,2181,minus1,0,GREY.bmp,Judgeindirect,blacksquare2.gif,pic1.bmp,Mask.bmp,0112416,12:07,3.0.6.0,7,blackindirect,4,38,1791,minus1,0,b04.bmp,Judgeindirect,blacksquare2.gif,pic59.bmp,Mask.bmp,0112416,12:07,3.0.6.0,7,whiteindirect,4,39,963,minus1,0,w03.bmp,Judgeindirect,blacksquare2.gif,pic38.bmp,Mask.bmp,0112416,12:07,3.0.6.0,7,blackindirect,4,40,1196,plus2,0,b09.bmp,Judgeindirect,blacksquare2.gif,pic71.bmp,Mask.bmp,0112416,12:07,3.0.6.0,7,blackindirect,4,41,658,plus2,0,b05.bmp,Judgeindirect,blacksquare2.gif,pic21.bmp,Mask.bmp,0112416,12:07,3.0.6.0,7,blackindirect,4,42,1262,minus2,0,b01.bmp,Judgeindirect,blacksquare2.gif,pic17.bmp,Mask.bmp,0112416,12:07,3.0.6.0,7,blackindirect,4,43,1105,plus1,0,b03.bmp,Judgeindirect,blacksquare2.gif,pic66.bmp,Mask.bmp,0112416,12:07,3.0.6.0,7,whiteindirect,4,44,1036,plus2,0,b11.jpg,Judgeindirect,blacksquare2.gif,pic12.bmp,Mask.bmp,0112416,12:07,3.0.6.0,7,blackindirect,4,45,882,plus2,0,b12.bmp,Judgeindirect,blacksquare2.gif,pic37.bmp,Mask.bmp,0112416,12:07,3.0.6.0,7,neutral,4,46,1594,minus1,0,GREY.bmp,Judgeindirect,blacksquare2.gif,pic64.bmp,Mask.bmp,0112416,12:07,3.0.6.0,7,blackindirect,4,47,672,minus1,0,b06.bmp,Judgeindirect,blacksquare2.gif,pic16.bmp,Mask.bmp,0112416,12:07,3.0.6.0,7,whiteindirect,4,48,1438,minus2,0,w01.bmp,Judgeindirect,blacksquare2.gif,pic23.bmp,Mask.bmp,0112416,12:07,3.0.6.0,7,whiteindirect,4,49,1267,plus2,0,w04.bmp,Judgeindirect,blacksquare2.gif,pic54.bmp,Mask.bmp,0112416,12:07,3.0.6.0,7,blackindirect,4,50,657,plus2,0,b02.bmp,Judgeindirect,blacksquare2.gif,pic75.bmp,Mask.bmp,0112416,12:07,3.0.6.0,7,neutral,4,51,717,plus2,0,GREY.bmp,Judgeindirect,blacksquare2.gif,pic26.bmp,Mask.bmp,0112416,12:07,3.0.6.0,7,neutral,4,52,1395,minus2,0,GREY.bmp,Judgeindirect,blacksquare2.gif,pic68.bmp,Mask.bmp,0112416,12:07,3.0.6.0,7,neutral,4,53,1816,plus1,0,GREY.bmp,Judgeindirect,blacksquare2.gif,pic58.bmp,Mask.bmp,0112416,12:07,3.0.6.0,7,blackindirect,4,54,1211,minus1,0,b10.bmp,Judgeindirect,blacksquare2.gif,pic39.bmp,Mask.bmp,0112416,12:07,3.0.6.0,7,whiteindirect,4,55,667,minus1,0,b10.jpg,Judgeindirect,blacksquare2.gif,pic22.bmp,Mask.bmp,0112416,12:07,3.0.6.0,7,whiteindirect,4,56,737,minus1,0,w02.bmp,Judgeindirect,blacksquare2.gif,pic13.bmp,Mask.bmp,0112416,12:07,3.0.6.0,7,neutral,4,57,1029,plus1,0,GREY.bmp,Judgeindirect,blacksquare2.gif,pic55.bmp,Mask.bmp,0112416,12:07,3.0.6.0,7,whiteindirect,4,58,923,minus1,0,w06.bmp,Judgeindirect,blacksquare2.gif,pic67.bmp,Mask.bmp,0112416,12:07,3.0.6.0,7,neutral,4,59,1716,minus2,0,GREY.bmp,Judgeindirect,blacksquare2.gif,pic65.bmp,Mask.bmp,0112416,12:07,3.0.6.0,7,whiteindirect,4,60,497,minus2,0,w05.bmp,Judgeindirect,blacksquare2.gif,pic46.bmp,Mask.bmp,0112416,12:07,3.0.6.0,7,neutral,4,61,1357,plus1,0,GREY.bmp,Judgeindirect,blacksquare2.gif,pic57.bmp,Mask.bmp,0112416,12:07,3.0.6.0,7,blackindirect,4,62,1058,minus1,0,b11.bmp,Judgeindirect,blacksquare2.gif,pic33.bmp,Mask.bmp,0112416,12:07,3.0.6.0,7,whiteindirect,4,63,1133,plus1,0,w09.bmp,Judgeindirect,blacksquare2.gif,pic41.bmp,Mask.bmp,0112416,12:07,3.0.6.0,7,neutral,4,64,816,minus1,0,GREY.bmp,Judgeindirect,blacksquare2.gif,pic8.bmp,Mask.bmp,0112416,12:07,3.0.6.0,7,whiteindirect,4,65,1476,plus2,0,w07.bmp,Judgeindirect,blacksquare2.gif,pic50.bmp,Mask.bmp,0112416,12:07,3.0.6.0,7,whiteindirect,4,66,721,plus2,0,b12.jpg,Judgeindirect,blacksquare2.gif,pic31.bmp,Mask.bmp,0112416,12:07,3.0.6.0,7,blackindirect,4,67,2338,plus1,0,b07.bmp,Judgeindirect,blacksquare2.gif,pic47.bmp,Mask.bmp,0112416,12:07,3.0.6.0,7,neutral,4,68,1172,minus1,0,GREY.bmp,Judgeindirect,blacksquare2.gif,pic36.bmp,Mask.bmp,0112416,12:07,3.0.6.0,7,neutral,4,69,668,minus1,0,GREY.bmp,Judgeindirect,blacksquare2.gif,pic25.bmp,Mask.bmp,0112416,12:07,3.0.6.0,7,neutral,4,70,578,minus1,0,GREY.bmp,Judgeindirect,blacksquare2.gif,pic43.bmp,Mask.bmp,0112416,12:07,3.0.6.0,7,neutral,4,71,1030,minus2,0,GREY.bmp,Judgeindirect,blacksquare2.gif,pic45.bmp,Mask.bmp,0112416,12:07,3.0.6.0,7,blackindirect,4,72,1988,plus1,0,b08.bmp,Judgeindirect,blacksquare2.gif,pic11.bmp,Mask.bmp,0112416,12:07,3.0.6.0,7,blackdirect,6,1,1819,plus1,0,b06.bmp,Judgedirect,blacksquare2.gif,pic106.bmp,Mask.bmp,0112416,12:07,3.0.6.0,7,whitedirect,6,2,1566,minus1,0,w07.bmp,Judgedirect,blacksquare2.gif,pic102.bmp,Mask.bmp,0112416,12:07,3.0.6.0,7,blackdirect,6,3,1253,minus2,0,b08.bmp,Judgedirect,blacksquare2.gif,pic114.bmp,Mask.bmp,0112416,12:07,3.0.6.0,7,whitedirect,6,4,1024,plus1,0,b12.jpg,Judgedirect,blacksquare2.gif,pic108.bmp,Mask.bmp,0112416,12:07,3.0.6.0,7,blackdirect,6,5,1124,plus2,0,b07.bmp,Judgedirect,blacksquare2.gif,pic107.bmp,Mask.bmp,0112416,12:07,3.0.6.0,7,whitedirect,6,6,1212,minus1,0,w05.bmp,Judgedirect,blacksquare2.gif,pic111.bmp,Mask.bmp,0112416,12:07,3.0.6.0,7,blackdirect,6,7,1372,plus1,0,b09.bmp,Judgedirect,blacksquare2.gif,pic82.bmp,Mask.bmp,0112416,12:07,3.0.6.0,7,whitedirect,6,8,621,plus1,0,w06.bmp,Judgedirect,blacksquare2.gif,pic78.bmp,Mask.bmp,0112416,12:07,3.0.6.0,7,blackdirect,6,9,728,plus1,0,b03.bmp,Judgedirect,blacksquare2.gif,pic100.bmp,Mask.bmp,0112416,12:07,3.0.6.0,7,whitedirect,6,10,817,plus2,0,b10.jpg,Judgedirect,blacksquare2.gif,pic101.bmp,Mask.bmp,0112416,12:07,3.0.6.0,7,blackdirect,6,11,1085,minus1,0,b11.bmp,Judgedirect,blacksquare2.gif,pic112.bmp,Mask.bmp,0112416,12:07,3.0.6.0,7,whitedirect,6,12,1245,minus1,0,w02.bmp,Judgedirect,blacksquare2.gif,pic113.bmp,Mask.bmp,0112416,12:07,3.0.6.0,7,blackdirect,6,13,998,minus1,0,b02.bmp,Judgedirect,blacksquare2.gif,pic105.bmp,Mask.bmp,0112416,12:07,3.0.6.0,7,whitedirect,6,14,1140,minus2,0,b11.jpg,Judgedirect,blacksquare2.gif,pic81.bmp,Mask.bmp,0112416,12:07,3.0.6.0,7,blackdirect,6,15,1103,plus1,0,b04.bmp,Judgedirect,blacksquare2.gif,pic118.bmp,Mask.bmp,0112416,12:07,3.0.6.0,7,whitedirect,6,16,1418,minus1,0,w03.bmp,Judgedirect,blacksquare2.gif,pic104.bmp,Mask.bmp,0112416,12:07,3.0.6.0,7,blackdirect,6,17,1389,plus2,0,b01.bmp,Judgedirect,blacksquare2.gif,pic80.bmp,Mask.bmp,0112416,12:07,3.0.6.0,7,whitedirect,6,18,986,minus1,0,w04.bmp,Judgedirect,blacksquare2.gif,pic103.bmp,Mask.bmp,0112416,12:07,3.0.6.0,7,blackdirect,6,19,1045,plus2,0,b10.bmp,Judgedirect,blacksquare2.gif,pic117.bmp,Mask.bmp,0112416,12:07,3.0.6.0,7,whitedirect,6,20,1137,minus1,0,w09.bmp,Judgedirect,blacksquare2.gif,pic79.bmp,Mask.bmp,0112416,12:07,3.0.6.0,7,blackdirect,6,21,940,plus1,0,b12.bmp,Judgedirect,blacksquare2.gif,pic116.bmp,Mask.bmp,0112416,12:07,3.0.6.0,7,whitedirect,6,22,935,minus1,0,w08.bmp,Judgedirect,blacksquare2.gif,pic115.bmp,Mask.bmp,0112416,12:07,3.0.6.0,7,blackdirect,6,23,971,plus2,0,b05.bmp,Judgedirect,blacksquare2.gif,pic109.bmp,Mask.bmp,0112416,12:07,3.0.6.0,7,whitedirect,6,24,875,minus1,0,w01.bmp,Judgedirect,blacksquare2.gif,pic110.bmp,Mask.bmp,0112416,12:07,3.0.6.0,7,sesso,7,1,7770,2,1,0,demo,0,0,0,0112416,12:07,3.0.6.0,7,anni,7,1,7770,24,1,0,demo,0,0,0,0112416,12:07,3.0.6.0,7,etnia,7,1,7770,Caucasico,1,0,demo,0,0,0,0112416,12:19,3.0.6.0,139,practice,1,1,8636,57,1,sample.bmp,orient1,blacksquare2.gif,pic76.bmp,Mask.bmp,0112416,12:19,3.0.6.0,139,blackindirect,4,1,5419,plus1,0,b06.bmp,Judgeindirect,blacksquare2.gif,pic2.bmp,Mask.bmp,0112416,12:19,3.0.6.0,139,whiteindirect,4,2,1656,plus1,0,w03.bmp,Judgeindirect,blacksquare2.gif,pic71.bmp,Mask.bmp,0112416,12:19,3.0.6.0,139,whiteindirect,4,3,1618,plus1,0,w09.bmp,Judgeindirect,blacksquare2.gif,pic14.bmp,Mask.bmp,0112416,12:19,3.0.6.0,139,neutral,4,4,1620,plus1,0,GREY.bmp,Judgeindirect,blacksquare2.gif,pic65.bmp,Mask.bmp,0112416,12:19,3.0.6.0,139,neutral,4,5,1615,minus1,0,GREY.bmp,Judgeindirect,blacksquare2.gif,pic34.bmp,Mask.bmp,0112416,12:19,3.0.6.0,139,blackindirect,4,6,1137,plus1,0,b09.bmp,Judgeindirect,blacksquare2.gif,pic18.bmp,Mask.bmp,0112416,12:19,3.0.6.0,139,whiteindirect,4,7,604,plus1,0,b12.jpg,Judgeindirect,blacksquare2.gif,pic45.bmp,Mask.bmp,0112416,12:19,3.0.6.0,139,whiteindirect,4,8,717,plus1,0,w02.bmp,Judgeindirect,blacksquare2.gif,pic20.bmp,Mask.bmp,0112416,12:19,3.0.6.0,139,blackindirect,4,9,1900,minus1,0,b03.bmp,Judgeindirect,blacksquare2.gif,pic47.bmp,Mask.bmp,0112416,12:19,3.0.6.0,139,neutral,4,10,1670,plus1,0,GREY.bmp,Judgeindirect,blacksquare2.gif,pic40.bmp,Mask.bmp,0112416,12:19,3.0.6.0,139,whiteindirect,4,11,2427,plus2,0,w06.bmp,Judgeindirect,blacksquare2.gif,pic50.bmp,Mask.bmp,0112416,12:19,3.0.6.0,139,blackindirect,4,12,972,plus1,0,b01.bmp,Judgeindirect,blacksquare2.gif,pic69.bmp,Mask.bmp,0112416,12:19,3.0.6.0,139,blackindirect,4,13,1284,plus2,0,b11.bmp,Judgeindirect,blacksquare2.gif,pic21.bmp,Mask.bmp,0112416,12:19,3.0.6.0,139,whiteindirect,4,14,1093,plus1,0,w04.bmp,Judgeindirect,blacksquare2.gif,pic59.bmp,Mask.bmp,0112416,12:19,3.0.6.0,139,whiteindirect,4,15,1432,plus2,0,b11.jpg,Judgeindirect,blacksquare2.gif,pic31.bmp,Mask.bmp,0112416,12:19,3.0.6.0,139,blackindirect,4,16,1653,minus1,0,b07.bmp,Judgeindirect,blacksquare2.gif,pic29.bmp,Mask.bmp,0112416,12:19,3.0.6.0,139,blackindirect,4,17,1221,plus1,0,b04.bmp,Judgeindirect,blacksquare2.gif,pic44.bmp,Mask.bmp,0112416,12:19,3.0.6.0,139,neutral,4,18,1448,minus1,0,GREY.bmp,Judgeindirect,blacksquare2.gif,pic39.bmp,Mask.bmp,0112416,12:19,3.0.6.0,139,neutral,4,19,1200,plus1,0,GREY.bmp,Judgeindirect,blacksquare2.gif,pic10.bmp,Mask.bmp,0112416,12:19,3.0.6.0,139,blackindirect,4,20,1248,plus2,0,b10.bmp,Judgeindirect,blacksquare2.gif,pic55.bmp,Mask.bmp,0112416,12:19,3.0.6.0,139,neutral,4,21,1592,minus1,0,GREY.bmp,Judgeindirect,blacksquare2.gif,pic33.bmp,Mask.bmp,0112416,12:19,3.0.6.0,139,neutral,4,22,2077,minus1,0,GREY.bmp,Judgeindirect,blacksquare2.gif,pic49.bmp,Mask.bmp,0112416,12:19,3.0.6.0,139,blackindirect,4,23,1010,plus1,0,b08.bmp,Judgeindirect,blacksquare2.gif,pic12.bmp,Mask.bmp,0112416,12:19,3.0.6.0,139,whiteindirect,4,24,1418,minus1,0,w05.bmp,Judgeindirect,blacksquare2.gif,pic36.bmp,Mask.bmp,0112416,12:19,3.0.6.0,139,blackindirect,4,25,1741,plus2,0,b12.bmp,Judgeindirect,blacksquare2.gif,pic19.bmp,Mask.bmp,0112416,12:19,3.0.6.0,139,neutral,4,26,1359,minus1,0,GREY.bmp,Judgeindirect,blacksquare2.gif,pic23.bmp,Mask.bmp,0112416,12:19,3.0.6.0,139,neutral,4,27,858,plus1,0,GREY.bmp,Judgeindirect,blacksquare2.gif,pic73.bmp,Mask.bmp,0112416,12:19,3.0.6.0,139,whiteindirect,4,28,693,plus1,0,w01.bmp,Judgeindirect,blacksquare2.gif,pic61.bmp,Mask.bmp,0112416,12:19,3.0.6.0,139,blackindirect,4,29,524,plus1,0,b02.bmp,Judgeindirect,blacksquare2.gif,pic70.bmp,Mask.bmp,0112416,12:19,3.0.6.0,139,whiteindirect,4,30,1080,plus2,0,w08.bmp,Judgeindirect,blacksquare2.gif,pic32.bmp,Mask.bmp,0112416,12:19,3.0.6.0,139,neutral,4,31,1067,plus1,0,GREY.bmp,Judgeindirect,blacksquare2.gif,pic68.bmp,Mask.bmp,0112416,12:19,3.0.6.0,139,blackindirect,4,32,1097,plus1,0,b05.bmp,Judgeindirect,blacksquare2.gif,pic53.bmp,Mask.bmp,0112416,12:19,3.0.6.0,139,neutral,4,33,2148,minus1,0,GREY.bmp,Judgeindirect,blacksquare2.gif,pic57.bmp,Mask.bmp,0112416,12:19,3.0.6.0,139,whiteindirect,4,34,1640,plus1,0,b10.jpg,Judgeindirect,blacksquare2.gif,pic6.bmp,Mask.bmp,0112416,12:19,3.0.6.0,139,neutral,4,35,1384,plus2,0,GREY.bmp,Judgeindirect,blacksquare2.gif,pic7.bmp,Mask.bmp,0112416,12:19,3.0.6.0,139,whiteindirect,4,36,859,plus2,0,w07.bmp,Judgeindirect,blacksquare2.gif,pic15.bmp,Mask.bmp,0112416,12:19,3.0.6.0,139,neutral,4,37,462,plus2,0,GREY.bmp,Judgeindirect,blacksquare2.gif,pic28.bmp,Mask.bmp,0112416,12:19,3.0.6.0,139,whiteindirect,4,38,506,plus2,0,w08.bmp,Judgeindirect,blacksquare2.gif,pic37.bmp,Mask.bmp,0112416,12:19,3.0.6.0,139,whiteindirect,4,39,601,plus2,0,w06.bmp,Judgeindirect,blacksquare2.gif,pic75.bmp,Mask.bmp,0112416,12:19,3.0.6.0,139,whiteindirect,4,40,562,plus2,0,w01.bmp,Judgeindirect,blacksquare2.gif,pic16.bmp,Mask.bmp,0112416,12:19,3.0.6.0,139,whiteindirect,4,41,612,plus2,0,b11.jpg,Judgeindirect,blacksquare2.gif,pic66.bmp,Mask.bmp,0112416,12:19,3.0.6.0,139,blackindirect,4,42,701,plus2,0,b09.bmp,Judgeindirect,blacksquare2.gif,pic46.bmp,Mask.bmp,0112416,12:19,3.0.6.0,139,whiteindirect,4,43,745,plus2,0,w03.bmp,Judgeindirect,blacksquare2.gif,pic63.bmp,Mask.bmp,0112416,12:19,3.0.6.0,139,neutral,4,44,1212,plus1,0,GREY.bmp,Judgeindirect,blacksquare2.gif,pic24.bmp,Mask.bmp,0112416,12:19,3.0.6.0,139,neutral,4,45,525,plus1,0,GREY.bmp,Judgeindirect,blacksquare2.gif,pic30.bmp,Mask.bmp,0112416,12:19,3.0.6.0,139,neutral,4,46,1694,minus1,0,GREY.bmp,Judgeindirect,blacksquare2.gif,pic62.bmp,Mask.bmp,0112416,12:19,3.0.6.0,139,neutral,4,47,1056,plus1,0,GREY.bmp,Judgeindirect,blacksquare2.gif,pic13.bmp,Mask.bmp,0112416,12:19,3.0.6.0,139,neutral,4,48,636,plus1,0,GREY.bmp,Judgeindirect,blacksquare2.gif,pic42.bmp,Mask.bmp,0112416,12:19,3.0.6.0,139,whiteindirect,4,49,546,plus1,0,b10.jpg,Judgeindirect,blacksquare2.gif,pic5.bmp,Mask.bmp,0112416,12:19,3.0.6.0,139,neutral,4,50,1185,minus1,0,GREY.bmp,Judgeindirect,blacksquare2.gif,pic27.bmp,Mask.bmp,0112416,12:19,3.0.6.0,139,blackindirect,4,51,852,plus1,0,b01.bmp,Judgeindirect,blacksquare2.gif,pic72.bmp,Mask.bmp,0112416,12:19,3.0.6.0,139,neutral,4,52,1045,minus1,0,GREY.bmp,Judgeindirect,blacksquare2.gif,pic1.bmp,Mask.bmp,0112416,12:19,3.0.6.0,139,blackindirect,4,53,1261,plus1,0,b02.bmp,Judgeindirect,blacksquare2.gif,pic3.bmp,Mask.bmp,0112416,12:19,3.0.6.0,139,blackindirect,4,54,1112,plus2,0,b10.bmp,Judgeindirect,blacksquare2.gif,pic51.bmp,Mask.bmp,0112416,12:19,3.0.6.0,139,blackindirect,4,55,902,plus1,0,b08.bmp,Judgeindirect,blacksquare2.gif,pic8.bmp,Mask.bmp,0112416,12:19,3.0.6.0,139,whiteindirect,4,56,1233,plus1,0,w07.bmp,Judgeindirect,blacksquare2.gif,pic4.bmp,Mask.bmp,0112416,12:19,3.0.6.0,139,neutral,4,57,1015,plus2,0,GREY.bmp,Judgeindirect,blacksquare2.gif,pic25.bmp,Mask.bmp,0112416,12:19,3.0.6.0,139,neutral,4,58,658,plus2,0,GREY.bmp,Judgeindirect,blacksquare2.gif,pic11.bmp,Mask.bmp,0112416,12:19,3.0.6.0,139,whiteindirect,4,59,766,plus1,0,w02.bmp,Judgeindirect,blacksquare2.gif,pic43.bmp,Mask.bmp,0112416,12:19,3.0.6.0,139,neutral,4,60,903,plus2,0,GREY.bmp,Judgeindirect,blacksquare2.gif,pic22.bmp,Mask.bmp,0112416,12:19,3.0.6.0,139,blackindirect,4,61,890,plus2,0,b07.bmp,Judgeindirect,blacksquare2.gif,pic58.bmp,Mask.bmp,0112416,12:19,3.0.6.0,139,whiteindirect,4,62,859,plus1,0,w05.bmp,Judgeindirect,blacksquare2.gif,pic41.bmp,Mask.bmp,0112416,12:19,3.0.6.0,139,blackindirect,4,63,871,plus2,0,b12.bmp,Judgeindirect,blacksquare2.gif,pic56.bmp,Mask.bmp,0112416,12:19,3.0.6.0,139,blackindirect,4,64,757,plus2,0,b03.bmp,Judgeindirect,blacksquare2.gif,pic48.bmp,Mask.bmp,0112416,12:19,3.0.6.0,139,whiteindirect,4,65,1211,minus1,0,b12.jpg,Judgeindirect,blacksquare2.gif,pic17.bmp,Mask.bmp,0112416,12:19,3.0.6.0,139,neutral,4,66,972,plus1,0,GREY.bmp,Judgeindirect,blacksquare2.gif,pic52.bmp,Mask.bmp,0112416,12:19,3.0.6.0,139,blackindirect,4,67,796,plus2,0,b04.bmp,Judgeindirect,blacksquare2.gif,pic64.bmp,Mask.bmp,0112416,12:19,3.0.6.0,139,blackindirect,4,68,819,plus1,0,b05.bmp,Judgeindirect,blacksquare2.gif,pic67.bmp,Mask.bmp,0112416,12:19,3.0.6.0,139,whiteindirect,4,69,1190,plus2,0,w04.bmp,Judgeindirect,blacksquare2.gif,pic60.bmp,Mask.bmp,0112416,12:19,3.0.6.0,139,whiteindirect,4,70,1492,minus1,0,w09.bmp,Judgeindirect,blacksquare2.gif,pic9.bmp,Mask.bmp,0112416,12:19,3.0.6.0,139,blackindirect,4,71,764,plus1,0,b11.bmp,Judgeindirect,blacksquare2.gif,pic54.bmp,Mask.bmp,0112416,12:19,3.0.6.0,139,blackindirect,4,72,687,plus2,0,b06.bmp,Judgeindirect,blacksquare2.gif,pic26.bmp,Mask.bmp,0112416,12:19,3.0.6.0,139,whitedirect,6,1,2000,minus1,0,b12.jpg,Judgedirect,blacksquare2.gif,pic101.bmp,Mask.bmp,0112416,12:19,3.0.6.0,139,blackdirect,6,2,693,minus1,0,b04.bmp,Judgedirect,blacksquare2.gif,pic81.bmp,Mask.bmp,0112416,12:19,3.0.6.0,139,whitedirect,6,3,825,plus1,0,w06.bmp,Judgedirect,blacksquare2.gif,pic112.bmp,Mask.bmp,0112416,12:19,3.0.6.0,139,blackdirect,6,4,844,plus1,0,b06.bmp,Judgedirect,blacksquare2.gif,pic114.bmp,Mask.bmp,0112416,12:19,3.0.6.0,139,whitedirect,6,5,1349,minus1,0,w04.bmp,Judgedirect,blacksquare2.gif,pic79.bmp,Mask.bmp,0112416,12:19,3.0.6.0,139,blackdirect,6,6,963,minus1,0,b03.bmp,Judgedirect,blacksquare2.gif,pic117.bmp,Mask.bmp,0112416,12:19,3.0.6.0,139,whitedirect,6,7,755,minus1,0,b10.jpg,Judgedirect,blacksquare2.gif,pic103.bmp,Mask.bmp,0112416,12:19,3.0.6.0,139,blackdirect,6,8,1034,plus1,0,b12.bmp,Judgedirect,blacksquare2.gif,pic113.bmp,Mask.bmp,0112416,12:19,3.0.6.0,139,whitedirect,6,9,1480,plus1,0,w07.bmp,Judgedirect,blacksquare2.gif,pic115.bmp,Mask.bmp,0112416,12:19,3.0.6.0,139,blackdirect,6,10,717,minus1,0,b11.bmp,Judgedirect,blacksquare2.gif,pic111.bmp,Mask.bmp,0112416,12:19,3.0.6.0,139,whitedirect,6,11,819,minus1,0,w09.bmp,Judgedirect,blacksquare2.gif,pic80.bmp,Mask.bmp,0112416,12:19,3.0.6.0,139,blackdirect,6,12,1119,minus1,0,b01.bmp,Judgedirect,blacksquare2.gif,pic116.bmp,Mask.bmp,0112416,12:19,3.0.6.0,139,whitedirect,6,13,789,plus1,0,w01.bmp,Judgedirect,blacksquare2.gif,pic110.bmp,Mask.bmp,0112416,12:19,3.0.6.0,139,blackdirect,6,14,707,minus1,0,b10.bmp,Judgedirect,blacksquare2.gif,pic78.bmp,Mask.bmp,0112416,12:19,3.0.6.0,139,whitedirect,6,15,770,minus1,0,w03.bmp,Judgedirect,blacksquare2.gif,pic100.bmp,Mask.bmp,0112416,12:19,3.0.6.0,139,blackdirect,6,16,666,minus1,0,b05.bmp,Judgedirect,blacksquare2.gif,pic108.bmp,Mask.bmp,0112416,12:19,3.0.6.0,139,whitedirect,6,17,1033,minus1,0,b11.jpg,Judgedirect,blacksquare2.gif,pic82.bmp,Mask.bmp,0112416,12:19,3.0.6.0,139,blackdirect,6,18,1215,minus1,0,b02.bmp,Judgedirect,blacksquare2.gif,pic105.bmp,Mask.bmp,0112416,12:19,3.0.6.0,139,whitedirect,6,19,842,plus1,0,w05.bmp,Judgedirect,blacksquare2.gif,pic104.bmp,Mask.bmp,0112416,12:19,3.0.6.0,139,blackdirect,6,20,603,minus1,0,b09.bmp,Judgedirect,blacksquare2.gif,pic109.bmp,Mask.bmp,0112416,12:19,3.0.6.0,139,whitedirect,6,21,2300,plus1,0,w02.bmp,Judgedirect,blacksquare2.gif,pic102.bmp,Mask.bmp,0112416,12:19,3.0.6.0,139,blackdirect,6,22,909,minus1,0,b08.bmp,Judgedirect,blacksquare2.gif,pic106.bmp,Mask.bmp,0112416,12:19,3.0.6.0,139,whitedirect,6,23,547,plus1,0,w08.bmp,Judgedirect,blacksquare2.gif,pic107.bmp,Mask.bmp,0112416,12:19,3.0.6.0,139,blackdirect,6,24,354,plus1,0,b07.bmp,Judgedirect,blacksquare2.gif,pic118.bmp,Mask.bmp,0112416,12:19,3.0.6.0,139,sesso,7,1,13295,2,1,0,demo,0,0,0,0112416,12:19,3.0.6.0,139,anni,7,1,13295,19,1,0,demo,0,0,0,0112416,12:19,3.0.6.0,139,etnia,7,1,13295,Caucasico,1,0,demo,0,0,0,0112416,12:43,3.0.6.0,9,practice,1,1,4589,57,1,sample.bmp,orient1,blacksquare2.gif,pic76.bmp,Mask.bmp,0112416,12:43,3.0.6.0,9,whitedirect,4,1,4237,minus1,0,w02.bmp,Judgedirect,blacksquare2.gif,pic109.bmp,Mask.bmp,0112416,12:43,3.0.6.0,9,blackdirect,4,2,11214,plus1,0,b10.bmp,Judgedirect,blacksquare2.gif,pic79.bmp,Mask.bmp,0112416,12:43,3.0.6.0,9,whitedirect,4,3,2101,minus1,0,w03.bmp,Judgedirect,blacksquare2.gif,pic111.bmp,Mask.bmp,0112416,12:43,3.0.6.0,9,blackdirect,4,4,4758,minus1,0,b04.bmp,Judgedirect,blacksquare2.gif,pic80.bmp,Mask.bmp,0112416,12:43,3.0.6.0,9,whitedirect,4,5,1559,plus1,0,w07.bmp,Judgedirect,blacksquare2.gif,pic104.bmp,Mask.bmp,0112416,12:43,3.0.6.0,9,blackdirect,4,6,820,plus1,0,b07.bmp,Judgedirect,blacksquare2.gif,pic108.bmp,Mask.bmp,0112416,12:43,3.0.6.0,9,whitedirect,4,7,735,plus1,0,w05.bmp,Judgedirect,blacksquare2.gif,pic103.bmp,Mask.bmp,0112416,12:43,3.0.6.0,9,blackdirect,4,8,1067,plus1,0,b02.bmp,Judgedirect,blacksquare2.gif,pic114.bmp,Mask.bmp,0112416,12:43,3.0.6.0,9,whitedirect,4,9,2065,minus1,0,b11.jpg,Judgedirect,blacksquare2.gif,pic102.bmp,Mask.bmp,0112416,12:43,3.0.6.0,9,blackdirect,4,10,1675,plus2,0,b05.bmp,Judgedirect,blacksquare2.gif,pic116.bmp,Mask.bmp,0112416,12:43,3.0.6.0,9,whitedirect,4,11,680,plus2,0,w08.bmp,Judgedirect,blacksquare2.gif,pic115.bmp,Mask.bmp,0112416,12:43,3.0.6.0,9,blackdirect,4,12,1017,plus2,0,b06.bmp,Judgedirect,blacksquare2.gif,pic101.bmp,Mask.bmp,0112416,12:43,3.0.6.0,9,whitedirect,4,13,2012,plus1,0,b12.jpg,Judgedirect,blacksquare2.gif,pic100.bmp,Mask.bmp,0112416,12:43,3.0.6.0,9,blackdirect,4,14,3363,plus1,0,b03.bmp,Judgedirect,blacksquare2.gif,pic110.bmp,Mask.bmp,0112416,12:43,3.0.6.0,9,whitedirect,4,15,1672,plus1,0,w06.bmp,Judgedirect,blacksquare2.gif,pic105.bmp,Mask.bmp,0112416,12:43,3.0.6.0,9,blackdirect,4,16,2365,plus1,0,b11.bmp,Judgedirect,blacksquare2.gif,pic81.bmp,Mask.bmp,0112416,12:43,3.0.6.0,9,whitedirect,4,17,1636,plus1,0,w01.bmp,Judgedirect,blacksquare2.gif,pic112.bmp,Mask.bmp,0112416,12:43,3.0.6.0,9,blackdirect,4,18,1201,minus1,0,b01.bmp,Judgedirect,blacksquare2.gif,pic106.bmp,Mask.bmp,0112416,12:43,3.0.6.0,9,whitedirect,4,19,1521,plus2,0,w04.bmp,Judgedirect,blacksquare2.gif,pic117.bmp,Mask.bmp,0112416,12:43,3.0.6.0,9,blackdirect,4,20,1489,plus1,0,b12.bmp,Judgedirect,blacksquare2.gif,pic113.bmp,Mask.bmp,0112416,12:43,3.0.6.0,9,whitedirect,4,21,1337,plus2,0,b10.jpg,Judgedirect,blacksquare2.gif,pic78.bmp,Mask.bmp,0112416,12:43,3.0.6.0,9,blackdirect,4,22,796,plus2,0,b09.bmp,Judgedirect,blacksquare2.gif,pic107.bmp,Mask.bmp,0112416,12:43,3.0.6.0,9,whitedirect,4,23,2826,plus1,0,w09.bmp,Judgedirect,blacksquare2.gif,pic118.bmp,Mask.bmp,0112416,12:43,3.0.6.0,9,blackdirect,4,24,1426,minus1,0,b08.bmp,Judgedirect,blacksquare2.gif,pic82.bmp,Mask.bmp,0112416,12:43,3.0.6.0,9,whiteindirect,6,1,4015,plus1,0,b10.jpg,Judgeindirect,blacksquare2.gif,pic64.bmp,Mask.bmp,0112416,12:43,3.0.6.0,9,blackindirect,6,2,2755,minus1,0,b11.bmp,Judgeindirect,blacksquare2.gif,pic74.bmp,Mask.bmp,0112416,12:43,3.0.6.0,9,neutral,6,3,1878,plus2,0,GREY.bmp,Judgeindirect,blacksquare2.gif,pic65.bmp,Mask.bmp,0112416,12:43,3.0.6.0,9,whiteindirect,6,4,763,plus2,0,w03.bmp,Judgeindirect,blacksquare2.gif,pic29.bmp,Mask.bmp,0112416,12:43,3.0.6.0,9,blackindirect,6,5,1804,plus1,0,b01.bmp,Judgeindirect,blacksquare2.gif,pic43.bmp,Mask.bmp,0112416,12:43,3.0.6.0,9,neutral,6,6,1339,plus2,0,GREY.bmp,Judgeindirect,blacksquare2.gif,pic51.bmp,Mask.bmp,0112416,12:43,3.0.6.0,9,whiteindirect,6,7,2366,plus1,0,w08.bmp,Judgeindirect,blacksquare2.gif,pic72.bmp,Mask.bmp,0112416,12:43,3.0.6.0,9,whiteindirect,6,8,1756,minus1,0,w06.bmp,Judgeindirect,blacksquare2.gif,pic53.bmp,Mask.bmp,0112416,12:43,3.0.6.0,9,blackindirect,6,9,1457,plus1,0,b04.bmp,Judgeindirect,blacksquare2.gif,pic41.bmp,Mask.bmp,0112416,12:43,3.0.6.0,9,neutral,6,10,1356,minus1,0,GREY.bmp,Judgeindirect,blacksquare2.gif,pic44.bmp,Mask.bmp,0112416,12:43,3.0.6.0,9,whiteindirect,6,11,1305,plus2,0,w09.bmp,Judgeindirect,blacksquare2.gif,pic56.bmp,Mask.bmp,0112416,12:43,3.0.6.0,9,neutral,6,12,580,plus2,0,GREY.bmp,Judgeindirect,blacksquare2.gif,pic66.bmp,Mask.bmp,0112416,12:43,3.0.6.0,9,blackindirect,6,13,1624,plus1,0,b08.bmp,Judgeindirect,blacksquare2.gif,pic27.bmp,Mask.bmp,0112416,12:43,3.0.6.0,9,blackindirect,6,14,1747,plus1,0,b09.bmp,Judgeindirect,blacksquare2.gif,pic49.bmp,Mask.bmp,0112416,12:43,3.0.6.0,9,whiteindirect,6,15,2021,plus1,0,b12.jpg,Judgeindirect,blacksquare2.gif,pic69.bmp,Mask.bmp,0112416,12:43,3.0.6.0,9,neutral,6,16,2462,minus1,0,GREY.bmp,Judgeindirect,blacksquare2.gif,pic1.bmp,Mask.bmp,0112416,12:43,3.0.6.0,9,neutral,6,17,2255,minus1,0,GREY.bmp,Judgeindirect,blacksquare2.gif,pic38.bmp,Mask.bmp,0112416,12:43,3.0.6.0,9,blackindirect,6,18,1145,minus1,0,b10.bmp,Judgeindirect,blacksquare2.gif,pic13.bmp,Mask.bmp,0112416,12:43,3.0.6.0,9,neutral,6,19,887,plus1,0,GREY.bmp,Judgeindirect,blacksquare2.gif,pic5.bmp,Mask.bmp,0112416,12:43,3.0.6.0,9,whiteindirect,6,20,5783,plus1,0,w02.bmp,Judgeindirect,blacksquare2.gif,pic14.bmp,Mask.bmp,0112416,12:43,3.0.6.0,9,neutral,6,21,1035,plus1,0,GREY.bmp,Judgeindirect,blacksquare2.gif,pic6.bmp,Mask.bmp,0112416,12:43,3.0.6.0,9,whiteindirect,6,22,1793,plus1,0,w05.bmp,Judgeindirect,blacksquare2.gif,pic23.bmp,Mask.bmp,0112416,12:43,3.0.6.0,9,blackindirect,6,23,1310,plus1,0,b03.bmp,Judgeindirect,blacksquare2.gif,pic22.bmp,Mask.bmp,0112416,12:43,3.0.6.0,9,whiteindirect,6,24,1348,plus2,0,w07.bmp,Judgeindirect,blacksquare2.gif,pic58.bmp,Mask.bmp,0112416,12:43,3.0.6.0,9,neutral,6,25,785,plus2,0,GREY.bmp,Judgeindirect,blacksquare2.gif,pic55.bmp,Mask.bmp,0112416,12:43,3.0.6.0,9,whiteindirect,6,26,2317,plus1,0,w04.bmp,Judgeindirect,blacksquare2.gif,pic31.bmp,Mask.bmp,0112416,12:43,3.0.6.0,9,blackindirect,6,27,1592,plus1,0,b02.bmp,Judgeindirect,blacksquare2.gif,pic34.bmp,Mask.bmp,0112416,12:43,3.0.6.0,9,whiteindirect,6,28,958,plus1,0,w01.bmp,Judgeindirect,blacksquare2.gif,pic50.bmp,Mask.bmp,0112416,12:43,3.0.6.0,9,blackindirect,6,29,1470,minus1,0,b06.bmp,Judgeindirect,blacksquare2.gif,pic67.bmp,Mask.bmp,0112416,12:43,3.0.6.0,9,whiteindirect,6,30,2123,minus1,0,b11.jpg,Judgeindirect,blacksquare2.gif,pic40.bmp,Mask.bmp,0112416,12:43,3.0.6.0,9,blackindirect,6,31,1674,plus1,0,b05.bmp,Judgeindirect,blacksquare2.gif,pic7.bmp,Mask.bmp,0112416,12:43,3.0.6.0,9,neutral,6,32,1039,plus1,0,GREY.bmp,Judgeindirect,blacksquare2.gif,pic54.bmp,Mask.bmp,0112416,12:43,3.0.6.0,9,whiteindirect,6,33,2157,minus1,0,w02.bmp,Judgeindirect,blacksquare2.gif,pic36.bmp,Mask.bmp,0112416,12:43,3.0.6.0,9,blackindirect,6,34,921,plus1,0,b12.bmp,Judgeindirect,blacksquare2.gif,pic37.bmp,Mask.bmp,0112416,12:43,3.0.6.0,9,whiteindirect,6,35,1410,plus1,0,w08.bmp,Judgeindirect,blacksquare2.gif,pic10.bmp,Mask.bmp,0112416,12:43,3.0.6.0,9,blackindirect,6,36,3130,plus1,0,b07.bmp,Judgeindirect,blacksquare2.gif,pic21.bmp,Mask.bmp,0112416,12:43,3.0.6.0,9,whiteindirect,6,37,2991,plus1,0,w06.bmp,Judgeindirect,blacksquare2.gif,pic12.bmp,Mask.bmp,0112416,12:43,3.0.6.0,9,neutral,6,38,1083,minus1,0,GREY.bmp,Judgeindirect,blacksquare2.gif,pic8.bmp,Mask.bmp,0112416,12:43,3.0.6.0,9,neutral,6,39,1003,plus1,0,GREY.bmp,Judgeindirect,blacksquare2.gif,pic48.bmp,Mask.bmp,0112416,12:43,3.0.6.0,9,blackindirect,6,40,1828,minus1,0,b06.bmp,Judgeindirect,blacksquare2.gif,pic68.bmp,Mask.bmp,0112416,12:43,3.0.6.0,9,neutral,6,41,1800,minus1,0,GREY.bmp,Judgeindirect,blacksquare2.gif,pic2.bmp,Mask.bmp,0112416,12:43,3.0.6.0,9,neutral,6,42,1461,plus2,0,GREY.bmp,Judgeindirect,blacksquare2.gif,pic9.bmp,Mask.bmp,0112416,12:43,3.0.6.0,9,blackindirect,6,43,2104,plus2,0,b03.bmp,Judgeindirect,blacksquare2.gif,pic63.bmp,Mask.bmp,0112416,12:43,3.0.6.0,9,whiteindirect,6,44,1121,plus1,0,w04.bmp,Judgeindirect,blacksquare2.gif,pic57.bmp,Mask.bmp,0112416,12:43,3.0.6.0,9,blackindirect,6,45,2066,plus1,0,b04.bmp,Judgeindirect,blacksquare2.gif,pic19.bmp,Mask.bmp,0112416,12:43,3.0.6.0,9,blackindirect,6,46,2179,plus2,0,b05.bmp,Judgeindirect,blacksquare2.gif,pic32.bmp,Mask.bmp,0112416,12:43,3.0.6.0,9,blackindirect,6,47,2101,plus1,0,b08.bmp,Judgeindirect,blacksquare2.gif,pic70.bmp,Mask.bmp,0112416,12:43,3.0.6.0,9,blackindirect,6,48,1838,plus2,0,b01.bmp,Judgeindirect,blacksquare2.gif,pic24.bmp,Mask.bmp,0112416,12:43,3.0.6.0,9,neutral,6,49,1987,plus1,0,GREY.bmp,Judgeindirect,blacksquare2.gif,pic26.bmp,Mask.bmp,0112416,12:43,3.0.6.0,9,whiteindirect,6,50,2016,minus1,0,b12.jpg,Judgeindirect,blacksquare2.gif,pic47.bmp,Mask.bmp,0112416,12:43,3.0.6.0,9,blackindirect,6,51,1489,plus1,0,b02.bmp,Judgeindirect,blacksquare2.gif,pic25.bmp,Mask.bmp,0112416,12:43,3.0.6.0,9,neutral,6,52,1289,plus1,0,GREY.bmp,Judgeindirect,blacksquare2.gif,pic16.bmp,Mask.bmp,0112416,12:43,3.0.6.0,9,whiteindirect,6,53,2138,plus1,0,w03.bmp,Judgeindirect,blacksquare2.gif,pic4.bmp,Mask.bmp,0112416,12:43,3.0.6.0,9,neutral,6,54,2395,plus1,0,GREY.bmp,Judgeindirect,blacksquare2.gif,pic61.bmp,Mask.bmp,0112416,12:43,3.0.6.0,9,neutral,6,55,863,plus2,0,GREY.bmp,Judgeindirect,blacksquare2.gif,pic46.bmp,Mask.bmp,0112416,12:43,3.0.6.0,9,neutral,6,56,1435,plus1,0,GREY.bmp,Judgeindirect,blacksquare2.gif,pic20.bmp,Mask.bmp,0112416,12:43,3.0.6.0,9,blackindirect,6,57,1520,plus2,0,b12.bmp,Judgeindirect,blacksquare2.gif,pic11.bmp,Mask.bmp,0112416,12:43,3.0.6.0,9,blackindirect,6,58,1205,minus1,0,b11.bmp,Judgeindirect,blacksquare2.gif,pic18.bmp,Mask.bmp,0112416,12:43,3.0.6.0,9,neutral,6,59,1765,plus1,0,GREY.bmp,Judgeindirect,blacksquare2.gif,pic62.bmp,Mask.bmp,0112416,12:43,3.0.6.0,9,whiteindirect,6,60,2717,plus1,0,w07.bmp,Judgeindirect,blacksquare2.gif,pic71.bmp,Mask.bmp,0112416,12:43,3.0.6.0,9,whiteindirect,6,61,3368,plus1,0,b11.jpg,Judgeindirect,blacksquare2.gif,pic45.bmp,Mask.bmp,0112416,12:43,3.0.6.0,9,whiteindirect,6,62,1709,minus1,0,w09.bmp,Judgeindirect,blacksquare2.gif,pic52.bmp,Mask.bmp,0112416,12:43,3.0.6.0,9,neutral,6,63,1106,plus1,0,GREY.bmp,Judgeindirect,blacksquare2.gif,pic60.bmp,Mask.bmp,0112416,12:43,3.0.6.0,9,blackindirect,6,64,1629,plus1,0,b09.bmp,Judgeindirect,blacksquare2.gif,pic15.bmp,Mask.bmp,0112416,12:43,3.0.6.0,9,blackindirect,6,65,1170,minus1,0,b07.bmp,Judgeindirect,blacksquare2.gif,pic33.bmp,Mask.bmp,0112416,12:43,3.0.6.0,9,neutral,6,66,1434,plus1,0,GREY.bmp,Judgeindirect,blacksquare2.gif,pic73.bmp,Mask.bmp,0112416,12:43,3.0.6.0,9,whiteindirect,6,67,4816,plus2,0,w01.bmp,Judgeindirect,blacksquare2.gif,pic17.bmp,Mask.bmp,0112416,12:43,3.0.6.0,9,whiteindirect,6,68,1259,plus1,0,w05.bmp,Judgeindirect,blacksquare2.gif,pic75.bmp,Mask.bmp,0112416,12:43,3.0.6.0,9,neutral,6,69,854,plus1,0,GREY.bmp,Judgeindirect,blacksquare2.gif,pic42.bmp,Mask.bmp,0112416,12:43,3.0.6.0,9,neutral,6,70,1081,plus2,0,GREY.bmp,Judgeindirect,blacksquare2.gif,pic28.bmp,Mask.bmp,0112416,12:43,3.0.6.0,9,whiteindirect,6,71,1778,plus1,0,b10.jpg,Judgeindirect,blacksquare2.gif,pic30.bmp,Mask.bmp,0