date,time,build,subject,trialcode,blocknum,trialnum,latency,response,correct,stimulus1,blockcode,stimulusitem2,stimulusitem3,stimulusitem4,stimulusitem521717,16:06:03,5.0.2.0,53,practice,1,1,14689,57,1,sample.bmp,orient1,blacksquare2.gif,pic76.bmp,Mask.bmp,021717,16:06:03,5.0.2.0,53,whitedirect,4,1,6827,minus2,0,w07.bmp,Judgedirect,blacksquare2.gif,pic106.bmp,Mask.bmp,021717,16:06:03,5.0.2.0,53,blackdirect,4,2,6214,plus2,0,b06.bmp,Judgedirect,blacksquare2.gif,pic80.bmp,Mask.bmp,021717,16:06:03,5.0.2.0,53,whitedirect,4,3,3122,minus1,0,w09.bmp,Judgedirect,blacksquare2.gif,pic81.bmp,Mask.bmp,021717,16:06:03,5.0.2.0,53,blackdirect,4,4,2195,plus2,0,b03.bmp,Judgedirect,blacksquare2.gif,pic103.bmp,Mask.bmp,021717,16:06:03,5.0.2.0,53,whitedirect,4,5,1179,plus2,0,b10.jpg,Judgedirect,blacksquare2.gif,pic117.bmp,Mask.bmp,021717,16:06:03,5.0.2.0,53,blackdirect,4,6,676,plus2,0,b07.bmp,Judgedirect,blacksquare2.gif,pic108.bmp,Mask.bmp,021717,16:06:03,5.0.2.0,53,whitedirect,4,7,3721,plus1,0,w08.bmp,Judgedirect,blacksquare2.gif,pic78.bmp,Mask.bmp,021717,16:06:03,5.0.2.0,53,blackdirect,4,8,1202,plus2,0,b12.bmp,Judgedirect,blacksquare2.gif,pic118.bmp,Mask.bmp,021717,16:06:03,5.0.2.0,53,whitedirect,4,9,698,plus1,0,w05.bmp,Judgedirect,blacksquare2.gif,pic100.bmp,Mask.bmp,021717,16:06:03,5.0.2.0,53,blackdirect,4,10,1230,plus1,0,b05.bmp,Judgedirect,blacksquare2.gif,pic110.bmp,Mask.bmp,021717,16:06:03,5.0.2.0,53,whitedirect,4,11,1141,plus1,0,w01.bmp,Judgedirect,blacksquare2.gif,pic101.bmp,Mask.bmp,021717,16:06:03,5.0.2.0,53,blackdirect,4,12,3031,plus1,0,b02.bmp,Judgedirect,blacksquare2.gif,pic115.bmp,Mask.bmp,021717,16:06:03,5.0.2.0,53,whitedirect,4,13,1717,plus2,0,w06.bmp,Judgedirect,blacksquare2.gif,pic116.bmp,Mask.bmp,021717,16:06:03,5.0.2.0,53,blackdirect,4,14,1920,plus1,0,b11.bmp,Judgedirect,blacksquare2.gif,pic102.bmp,Mask.bmp,021717,16:06:03,5.0.2.0,53,whitedirect,4,15,1418,plus2,0,w02.bmp,Judgedirect,blacksquare2.gif,pic82.bmp,Mask.bmp,021717,16:06:03,5.0.2.0,53,blackdirect,4,16,2233,plus1,0,b01.bmp,Judgedirect,blacksquare2.gif,pic79.bmp,Mask.bmp,021717,16:06:03,5.0.2.0,53,whitedirect,4,17,1879,plus2,0,b12.jpg,Judgedirect,blacksquare2.gif,pic113.bmp,Mask.bmp,021717,16:06:03,5.0.2.0,53,blackdirect,4,18,1875,minus1,0,b10.bmp,Judgedirect,blacksquare2.gif,pic109.bmp,Mask.bmp,021717,16:06:03,5.0.2.0,53,whitedirect,4,19,1168,minus1,0,w03.bmp,Judgedirect,blacksquare2.gif,pic114.bmp,Mask.bmp,021717,16:06:03,5.0.2.0,53,blackdirect,4,20,1288,minus1,0,b08.bmp,Judgedirect,blacksquare2.gif,pic104.bmp,Mask.bmp,021717,16:06:03,5.0.2.0,53,whitedirect,4,21,2149,plus1,0,b11.jpg,Judgedirect,blacksquare2.gif,pic111.bmp,Mask.bmp,021717,16:06:03,5.0.2.0,53,blackdirect,4,22,3774,plus2,0,b04.bmp,Judgedirect,blacksquare2.gif,pic105.bmp,Mask.bmp,021717,16:06:03,5.0.2.0,53,whitedirect,4,23,629,plus2,0,w04.bmp,Judgedirect,blacksquare2.gif,pic107.bmp,Mask.bmp,021717,16:06:03,5.0.2.0,53,blackdirect,4,24,604,plus2,0,b09.bmp,Judgedirect,blacksquare2.gif,pic112.bmp,Mask.bmp,021717,16:06:03,5.0.2.0,53,whiteindirect,6,1,4654,plus1,0,w07.bmp,Judgeindirect,blacksquare2.gif,pic72.bmp,Mask.bmp,021717,16:06:03,5.0.2.0,53,blackindirect,6,2,2793,plus1,0,b08.bmp,Judgeindirect,blacksquare2.gif,pic73.bmp,Mask.bmp,021717,16:06:03,5.0.2.0,53,blackindirect,6,3,1824,plus1,0,b12.bmp,Judgeindirect,blacksquare2.gif,pic15.bmp,Mask.bmp,021717,16:06:03,5.0.2.0,53,neutral,6,4,1175,plus2,0,GREY.bmp,Judgeindirect,blacksquare2.gif,pic6.bmp,Mask.bmp,021717,16:06:03,5.0.2.0,53,blackindirect,6,5,1536,plus2,0,b11.bmp,Judgeindirect,blacksquare2.gif,pic67.bmp,Mask.bmp,021717,16:06:03,5.0.2.0,53,whiteindirect,6,6,1002,minus1,0,w02.bmp,Judgeindirect,blacksquare2.gif,pic42.bmp,Mask.bmp,021717,16:06:03,5.0.2.0,53,neutral,6,7,761,minus1,0,GREY.bmp,Judgeindirect,blacksquare2.gif,pic60.bmp,Mask.bmp,021717,16:06:03,5.0.2.0,53,neutral,6,8,1035,plus1,0,GREY.bmp,Judgeindirect,blacksquare2.gif,pic13.bmp,Mask.bmp,021717,16:06:03,5.0.2.0,53,neutral,6,9,1017,plus2,0,GREY.bmp,Judgeindirect,blacksquare2.gif,pic22.bmp,Mask.bmp,021717,16:06:03,5.0.2.0,53,whiteindirect,6,10,1952,minus1,0,w01.bmp,Judgeindirect,blacksquare2.gif,pic64.bmp,Mask.bmp,021717,16:06:03,5.0.2.0,53,blackindirect,6,11,1481,plus1,0,b03.bmp,Judgeindirect,blacksquare2.gif,pic14.bmp,Mask.bmp,021717,16:06:03,5.0.2.0,53,neutral,6,12,726,plus1,0,GREY.bmp,Judgeindirect,blacksquare2.gif,pic49.bmp,Mask.bmp,021717,16:06:03,5.0.2.0,53,blackindirect,6,13,1353,plus2,0,b09.bmp,Judgeindirect,blacksquare2.gif,pic28.bmp,Mask.bmp,021717,16:06:03,5.0.2.0,53,blackindirect,6,14,1355,plus2,0,b10.bmp,Judgeindirect,blacksquare2.gif,pic30.bmp,Mask.bmp,021717,16:06:03,5.0.2.0,53,neutral,6,15,1516,minus1,0,GREY.bmp,Judgeindirect,blacksquare2.gif,pic39.bmp,Mask.bmp,021717,16:06:03,5.0.2.0,53,neutral,6,16,855,plus1,0,GREY.bmp,Judgeindirect,blacksquare2.gif,pic24.bmp,Mask.bmp,021717,16:06:03,5.0.2.0,53,blackindirect,6,17,557,plus1,0,b02.bmp,Judgeindirect,blacksquare2.gif,pic51.bmp,Mask.bmp,021717,16:06:03,5.0.2.0,53,blackindirect,6,18,1295,plus2,0,b01.bmp,Judgeindirect,blacksquare2.gif,pic27.bmp,Mask.bmp,021717,16:06:03,5.0.2.0,53,neutral,6,19,931,plus1,0,GREY.bmp,Judgeindirect,blacksquare2.gif,pic44.bmp,Mask.bmp,021717,16:06:03,5.0.2.0,53,whiteindirect,6,20,918,plus2,0,w05.bmp,Judgeindirect,blacksquare2.gif,pic12.bmp,Mask.bmp,021717,16:06:03,5.0.2.0,53,blackindirect,6,21,1057,plus2,0,b04.bmp,Judgeindirect,blacksquare2.gif,pic65.bmp,Mask.bmp,021717,16:06:03,5.0.2.0,53,blackindirect,6,22,1175,plus2,0,b07.bmp,Judgeindirect,blacksquare2.gif,pic33.bmp,Mask.bmp,021717,16:06:03,5.0.2.0,53,whiteindirect,6,23,1456,minus1,0,b11.jpg,Judgeindirect,blacksquare2.gif,pic18.bmp,Mask.bmp,021717,16:06:03,5.0.2.0,53,neutral,6,24,1045,plus1,0,GREY.bmp,Judgeindirect,blacksquare2.gif,pic2.bmp,Mask.bmp,021717,16:06:03,5.0.2.0,53,whiteindirect,6,25,771,plus1,0,w09.bmp,Judgeindirect,blacksquare2.gif,pic26.bmp,Mask.bmp,021717,16:06:03,5.0.2.0,53,blackindirect,6,26,925,plus2,0,b05.bmp,Judgeindirect,blacksquare2.gif,pic16.bmp,Mask.bmp,021717,16:06:03,5.0.2.0,53,blackindirect,6,27,672,plus2,0,b06.bmp,Judgeindirect,blacksquare2.gif,pic47.bmp,Mask.bmp,021717,16:06:03,5.0.2.0,53,neutral,6,28,989,plus2,0,GREY.bmp,Judgeindirect,blacksquare2.gif,pic61.bmp,Mask.bmp,021717,16:06:03,5.0.2.0,53,blackindirect,6,29,1981,plus1,0,b06.bmp,Judgeindirect,blacksquare2.gif,pic38.bmp,Mask.bmp,021717,16:06:03,5.0.2.0,53,blackindirect,6,30,1381,minus1,0,b02.bmp,Judgeindirect,blacksquare2.gif,pic4.bmp,Mask.bmp,021717,16:06:03,5.0.2.0,53,neutral,6,31,638,minus1,0,GREY.bmp,Judgeindirect,blacksquare2.gif,pic68.bmp,Mask.bmp,021717,16:06:03,5.0.2.0,53,blackindirect,6,32,605,minus1,0,b04.bmp,Judgeindirect,blacksquare2.gif,pic56.bmp,Mask.bmp,021717,16:06:03,5.0.2.0,53,neutral,6,33,541,minus1,0,GREY.bmp,Judgeindirect,blacksquare2.gif,pic75.bmp,Mask.bmp,021717,16:06:03,5.0.2.0,53,neutral,6,34,1583,plus1,0,GREY.bmp,Judgeindirect,blacksquare2.gif,pic29.bmp,Mask.bmp,021717,16:06:03,5.0.2.0,53,whiteindirect,6,35,416,plus1,0,w08.bmp,Judgeindirect,blacksquare2.gif,pic71.bmp,Mask.bmp,021717,16:06:03,5.0.2.0,53,neutral,6,36,944,plus1,0,GREY.bmp,Judgeindirect,blacksquare2.gif,pic57.bmp,Mask.bmp,021717,16:06:03,5.0.2.0,53,neutral,6,37,594,plus1,0,GREY.bmp,Judgeindirect,blacksquare2.gif,pic74.bmp,Mask.bmp,021717,16:06:03,5.0.2.0,53,blackindirect,6,38,843,plus1,0,b12.bmp,Judgeindirect,blacksquare2.gif,pic32.bmp,Mask.bmp,021717,16:06:03,5.0.2.0,53,whiteindirect,6,39,1137,plus2,0,w04.bmp,Judgeindirect,blacksquare2.gif,pic66.bmp,Mask.bmp,021717,16:06:03,5.0.2.0,53,whiteindirect,6,40,980,plus2,0,b12.jpg,Judgeindirect,blacksquare2.gif,pic5.bmp,Mask.bmp,021717,16:06:03,5.0.2.0,53,neutral,6,41,821,plus1,0,GREY.bmp,Judgeindirect,blacksquare2.gif,pic62.bmp,Mask.bmp,021717,16:06:03,5.0.2.0,53,blackindirect,6,42,372,plus1,0,b05.bmp,Judgeindirect,blacksquare2.gif,pic53.bmp,Mask.bmp,021717,16:06:03,5.0.2.0,53,neutral,6,43,365,plus1,0,GREY.bmp,Judgeindirect,blacksquare2.gif,pic46.bmp,Mask.bmp,021717,16:06:03,5.0.2.0,53,neutral,6,44,743,plus1,0,GREY.bmp,Judgeindirect,blacksquare2.gif,pic69.bmp,Mask.bmp,021717,16:06:03,5.0.2.0,53,neutral,6,45,1002,minus1,0,GREY.bmp,Judgeindirect,blacksquare2.gif,pic45.bmp,Mask.bmp,021717,16:06:03,5.0.2.0,53,blackindirect,6,46,1154,minus1,0,b03.bmp,Judgeindirect,blacksquare2.gif,pic7.bmp,Mask.bmp,021717,16:06:03,5.0.2.0,53,whiteindirect,6,47,867,minus1,0,w03.bmp,Judgeindirect,blacksquare2.gif,pic23.bmp,Mask.bmp,021717,16:06:03,5.0.2.0,53,blackindirect,6,48,920,plus1,0,b01.bmp,Judgeindirect,blacksquare2.gif,pic63.bmp,Mask.bmp,021717,16:06:03,5.0.2.0,53,whiteindirect,6,49,1091,minus1,0,b10.jpg,Judgeindirect,blacksquare2.gif,pic59.bmp,Mask.bmp,021717,16:06:03,5.0.2.0,53,whiteindirect,6,50,736,plus2,0,w06.bmp,Judgeindirect,blacksquare2.gif,pic37.bmp,Mask.bmp,021717,16:06:03,5.0.2.0,53,whiteindirect,6,51,450,plus2,0,w03.bmp,Judgeindirect,blacksquare2.gif,pic25.bmp,Mask.bmp,021717,16:06:03,5.0.2.0,53,neutral,6,52,1264,plus1,0,GREY.bmp,Judgeindirect,blacksquare2.gif,pic21.bmp,Mask.bmp,021717,16:06:03,5.0.2.0,53,blackindirect,6,53,334,plus1,0,b07.bmp,Judgeindirect,blacksquare2.gif,pic55.bmp,Mask.bmp,021717,16:06:03,5.0.2.0,53,whiteindirect,6,54,872,minus1,0,b11.jpg,Judgeindirect,blacksquare2.gif,pic43.bmp,Mask.bmp,021717,16:06:03,5.0.2.0,53,whiteindirect,6,55,350,minus1,0,w01.bmp,Judgeindirect,blacksquare2.gif,pic34.bmp,Mask.bmp,021717,16:06:03,5.0.2.0,53,neutral,6,56,728,minus1,0,GREY.bmp,Judgeindirect,blacksquare2.gif,pic52.bmp,Mask.bmp,021717,16:06:03,5.0.2.0,53,neutral,6,57,1163,plus1,0,GREY.bmp,Judgeindirect,blacksquare2.gif,pic31.bmp,Mask.bmp,021717,16:06:03,5.0.2.0,53,whiteindirect,6,58,1317,minus2,0,w06.bmp,Judgeindirect,blacksquare2.gif,pic8.bmp,Mask.bmp,021717,16:06:03,5.0.2.0,53,whiteindirect,6,59,1256,plus1,0,b10.jpg,Judgeindirect,blacksquare2.gif,pic36.bmp,Mask.bmp,021717,16:06:03,5.0.2.0,53,whiteindirect,6,60,405,plus1,0,w09.bmp,Judgeindirect,blacksquare2.gif,pic54.bmp,Mask.bmp,021717,16:06:03,5.0.2.0,53,blackindirect,6,61,2053,plus1,0,b10.bmp,Judgeindirect,blacksquare2.gif,pic19.bmp,Mask.bmp,021717,16:06:03,5.0.2.0,53,whiteindirect,6,62,1994,plus1,0,w08.bmp,Judgeindirect,blacksquare2.gif,pic50.bmp,Mask.bmp,021717,16:06:03,5.0.2.0,53,neutral,6,63,634,plus1,0,GREY.bmp,Judgeindirect,blacksquare2.gif,pic11.bmp,Mask.bmp,021717,16:06:03,5.0.2.0,53,whiteindirect,6,64,1328,plus1,0,w05.bmp,Judgeindirect,blacksquare2.gif,pic70.bmp,Mask.bmp,021717,16:06:03,5.0.2.0,53,whiteindirect,6,65,795,plus1,0,w04.bmp,Judgeindirect,blacksquare2.gif,pic10.bmp,Mask.bmp,021717,16:06:03,5.0.2.0,53,blackindirect,6,66,596,plus1,0,b08.bmp,Judgeindirect,blacksquare2.gif,pic58.bmp,Mask.bmp,021717,16:06:03,5.0.2.0,53,whiteindirect,6,67,828,plus2,0,b12.jpg,Judgeindirect,blacksquare2.gif,pic17.bmp,Mask.bmp,021717,16:06:03,5.0.2.0,53,neutral,6,68,635,minus1,0,GREY.bmp,Judgeindirect,blacksquare2.gif,pic41.bmp,Mask.bmp,021717,16:06:03,5.0.2.0,53,blackindirect,6,69,1002,minus2,0,b09.bmp,Judgeindirect,blacksquare2.gif,pic9.bmp,Mask.bmp,021717,16:06:03,5.0.2.0,53,whiteindirect,6,70,834,minus1,0,w02.bmp,Judgeindirect,blacksquare2.gif,pic20.bmp,Mask.bmp,021717,16:06:03,5.0.2.0,53,blackindirect,6,71,464,minus1,0,b11.bmp,Judgeindirect,blacksquare2.gif,pic3.bmp,Mask.bmp,021717,16:06:03,5.0.2.0,53,whiteindirect,6,72,1102,plus1,0,w07.bmp,Judgeindirect,blacksquare2.gif,pic48.bmp,Mask.bmp,021717,16:06:03,5.0.2.0,53,gender,7,1,13310,2,1,0,demo,0,0,0,021717,16:06:03,5.0.2.0,53,age,7,1,13310,18,1,0,demo,0,0,0,021717,16:06:03,5.0.2.0,53,ethnicity,7,1,13310,"White, non-Hispanic or Latino",1,0,demo,0,0,0,0113016,9:09:32,5.0.2.0,1,practice,1,1,637,57,1,sample.bmp,orient1,blacksquare2.gif,pic76.bmp,Mask.bmp,0113016,9:10:21,5.0.2.0,2,practice,1,1,447,57,1,sample.bmp,orient1,blacksquare2.gif,pic76.bmp,Mask.bmp,0113016,9:11:08,5.0.2.0,3,practice,1,1,321,57,1,sample.bmp,orient1,blacksquare2.gif,pic76.bmp,Mask.bmp,021717,16:06:11,5.0.2.0,54,practice,1,1,11740,57,1,sample.bmp,orient1,blacksquare2.gif,pic76.bmp,Mask.bmp,021717,16:06:11,5.0.2.0,54,neutral,4,1,5702,plus1,0,GREY.bmp,Judgeindirect,blacksquare2.gif,pic27.bmp,Mask.bmp,021717,16:06:11,5.0.2.0,54,whiteindirect,4,2,3719,plus1,0,w04.bmp,Judgeindirect,blacksquare2.gif,pic19.bmp,Mask.bmp,021717,16:06:11,5.0.2.0,54,whiteindirect,4,3,3496,plus1,0,w06.bmp,Judgeindirect,blacksquare2.gif,pic23.bmp,Mask.bmp,021717,16:06:11,5.0.2.0,54,whiteindirect,4,4,2115,plus1,0,b12.jpg,Judgeindirect,blacksquare2.gif,pic3.bmp,Mask.bmp,021717,16:06:11,5.0.2.0,54,neutral,4,5,3181,plus1,0,GREY.bmp,Judgeindirect,blacksquare2.gif,pic8.bmp,Mask.bmp,021717,16:06:11,5.0.2.0,54,blackindirect,4,6,10388,plus1,0,b01.bmp,Judgeindirect,blacksquare2.gif,pic26.bmp,Mask.bmp,021717,16:06:11,5.0.2.0,54,neutral,4,7,1943,plus1,0,GREY.bmp,Judgeindirect,blacksquare2.gif,pic64.bmp,Mask.bmp,021717,16:06:11,5.0.2.0,54,neutral,4,8,3536,plus1,0,GREY.bmp,Judgeindirect,blacksquare2.gif,pic34.bmp,Mask.bmp,021717,16:06:11,5.0.2.0,54,blackindirect,4,9,1905,minus1,0,b02.bmp,Judgeindirect,blacksquare2.gif,pic31.bmp,Mask.bmp,021717,16:06:11,5.0.2.0,54,neutral,4,10,4860,minus1,0,GREY.bmp,Judgeindirect,blacksquare2.gif,pic60.bmp,Mask.bmp,021717,16:06:11,5.0.2.0,54,neutral,4,11,2975,minus1,0,GREY.bmp,Judgeindirect,blacksquare2.gif,pic48.bmp,Mask.bmp,021717,16:06:11,5.0.2.0,54,whiteindirect,4,12,4038,plus2,0,b10.jpg,Judgeindirect,blacksquare2.gif,pic58.bmp,Mask.bmp,021717,16:06:11,5.0.2.0,54,neutral,4,13,2338,plus2,0,GREY.bmp,Judgeindirect,blacksquare2.gif,pic56.bmp,Mask.bmp,021717,16:06:11,5.0.2.0,54,whiteindirect,4,14,3027,plus1,0,w08.bmp,Judgeindirect,blacksquare2.gif,pic63.bmp,Mask.bmp,021717,16:06:11,5.0.2.0,54,whiteindirect,4,15,4809,minus1,0,b11.jpg,Judgeindirect,blacksquare2.gif,pic42.bmp,Mask.bmp,021717,16:06:11,5.0.2.0,54,blackindirect,4,16,1966,plus1,0,b03.bmp,Judgeindirect,blacksquare2.gif,pic45.bmp,Mask.bmp,021717,16:06:11,5.0.2.0,54,whiteindirect,4,17,2551,plus1,0,w02.bmp,Judgeindirect,blacksquare2.gif,pic29.bmp,Mask.bmp,021717,16:06:11,5.0.2.0,54,blackindirect,4,18,2808,plus1,0,b04.bmp,Judgeindirect,blacksquare2.gif,pic9.bmp,Mask.bmp,021717,16:06:11,5.0.2.0,54,whiteindirect,4,19,1798,minus1,0,w09.bmp,Judgeindirect,blacksquare2.gif,pic40.bmp,Mask.bmp,021717,16:06:11,5.0.2.0,54,blackindirect,4,20,1798,minus2,0,b08.bmp,Judgeindirect,blacksquare2.gif,pic49.bmp,Mask.bmp,021717,16:06:11,5.0.2.0,54,whiteindirect,4,21,1654,minus1,0,w05.bmp,Judgeindirect,blacksquare2.gif,pic39.bmp,Mask.bmp,021717,16:06:11,5.0.2.0,54,neutral,4,22,1787,plus1,0,GREY.bmp,Judgeindirect,blacksquare2.gif,pic30.bmp,Mask.bmp,021717,16:06:11,5.0.2.0,54,blackindirect,4,23,1875,plus2,0,b11.bmp,Judgeindirect,blacksquare2.gif,pic5.bmp,Mask.bmp,021717,16:06:11,5.0.2.0,54,whiteindirect,4,24,2607,minus1,0,w03.bmp,Judgeindirect,blacksquare2.gif,pic36.bmp,Mask.bmp,021717,16:06:11,5.0.2.0,54,blackindirect,4,25,2749,minus2,0,b07.bmp,Judgeindirect,blacksquare2.gif,pic7.bmp,Mask.bmp,021717,16:06:11,5.0.2.0,54,neutral,4,26,2670,minus1,0,GREY.bmp,Judgeindirect,blacksquare2.gif,pic20.bmp,Mask.bmp,021717,16:06:11,5.0.2.0,54,whiteindirect,4,27,1450,plus1,0,w01.bmp,Judgeindirect,blacksquare2.gif,pic32.bmp,Mask.bmp,021717,16:06:11,5.0.2.0,54,blackindirect,4,28,3840,plus2,0,b06.bmp,Judgeindirect,blacksquare2.gif,pic75.bmp,Mask.bmp,021717,16:06:11,5.0.2.0,54,neutral,4,29,756,plus2,0,GREY.bmp,Judgeindirect,blacksquare2.gif,pic71.bmp,Mask.bmp,021717,16:06:11,5.0.2.0,54,whiteindirect,4,30,574,plus2,0,w07.bmp,Judgeindirect,blacksquare2.gif,pic25.bmp,Mask.bmp,021717,16:06:11,5.0.2.0,54,whiteindirect,4,31,1199,plus1,0,w01.bmp,Judgeindirect,blacksquare2.gif,pic14.bmp,Mask.bmp,021717,16:06:11,5.0.2.0,54,blackindirect,4,32,2271,plus1,0,b09.bmp,Judgeindirect,blacksquare2.gif,pic4.bmp,Mask.bmp,021717,16:06:11,5.0.2.0,54,neutral,4,33,820,plus1,0,GREY.bmp,Judgeindirect,blacksquare2.gif,pic18.bmp,Mask.bmp,021717,16:06:11,5.0.2.0,54,blackindirect,4,34,651,plus1,0,b05.bmp,Judgeindirect,blacksquare2.gif,pic44.bmp,Mask.bmp,021717,16:06:11,5.0.2.0,54,blackindirect,4,35,873,minus1,0,b10.bmp,Judgeindirect,blacksquare2.gif,pic46.bmp,Mask.bmp,021717,16:06:11,5.0.2.0,54,blackindirect,4,36,1710,minus2,0,b12.bmp,Judgeindirect,blacksquare2.gif,pic51.bmp,Mask.bmp,021717,16:06:11,5.0.2.0,54,neutral,4,37,1185,minus1,0,GREY.bmp,Judgeindirect,blacksquare2.gif,pic61.bmp,Mask.bmp,021717,16:06:11,5.0.2.0,54,blackindirect,4,38,985,minus1,0,b07.bmp,Judgeindirect,blacksquare2.gif,pic72.bmp,Mask.bmp,021717,16:06:11,5.0.2.0,54,neutral,4,39,1569,plus1,0,GREY.bmp,Judgeindirect,blacksquare2.gif,pic17.bmp,Mask.bmp,021717,16:06:11,5.0.2.0,54,blackindirect,4,40,1506,plus1,0,b01.bmp,Judgeindirect,blacksquare2.gif,pic16.bmp,Mask.bmp,021717,16:06:11,5.0.2.0,54,blackindirect,4,41,1773,minus1,0,b02.bmp,Judgeindirect,blacksquare2.gif,pic6.bmp,Mask.bmp,021717,16:06:11,5.0.2.0,54,blackindirect,4,42,1293,plus1,0,b11.bmp,Judgeindirect,blacksquare2.gif,pic73.bmp,Mask.bmp,021717,16:06:11,5.0.2.0,54,whiteindirect,4,43,1306,plus1,0,w04.bmp,Judgeindirect,blacksquare2.gif,pic50.bmp,Mask.bmp,021717,16:06:11,5.0.2.0,54,neutral,4,44,1189,plus1,0,GREY.bmp,Judgeindirect,blacksquare2.gif,pic1.bmp,Mask.bmp,021717,16:06:11,5.0.2.0,54,blackindirect,4,45,2405,minus1,0,b12.bmp,Judgeindirect,blacksquare2.gif,pic15.bmp,Mask.bmp,021717,16:06:11,5.0.2.0,54,neutral,4,46,1300,plus1,0,GREY.bmp,Judgeindirect,blacksquare2.gif,pic13.bmp,Mask.bmp,021717,16:06:11,5.0.2.0,54,neutral,4,47,2688,plus1,0,GREY.bmp,Judgeindirect,blacksquare2.gif,pic24.bmp,Mask.bmp,021717,16:06:11,5.0.2.0,54,whiteindirect,4,48,1267,plus1,0,w05.bmp,Judgeindirect,blacksquare2.gif,pic59.bmp,Mask.bmp,021717,16:06:11,5.0.2.0,54,blackindirect,4,49,1440,minus1,0,b08.bmp,Judgeindirect,blacksquare2.gif,pic74.bmp,Mask.bmp,021717,16:06:11,5.0.2.0,54,whiteindirect,4,50,1294,minus1,0,w08.bmp,Judgeindirect,blacksquare2.gif,pic37.bmp,Mask.bmp,021717,16:06:11,5.0.2.0,54,blackindirect,4,51,1170,plus1,0,b10.bmp,Judgeindirect,blacksquare2.gif,pic57.bmp,Mask.bmp,021717,16:06:11,5.0.2.0,54,neutral,4,52,763,plus1,0,GREY.bmp,Judgeindirect,blacksquare2.gif,pic2.bmp,Mask.bmp,021717,16:06:11,5.0.2.0,54,blackindirect,4,53,1021,plus1,0,b04.bmp,Judgeindirect,blacksquare2.gif,pic47.bmp,Mask.bmp,021717,16:06:11,5.0.2.0,54,whiteindirect,4,54,2371,minus1,0,w09.bmp,Judgeindirect,blacksquare2.gif,pic38.bmp,Mask.bmp,021717,16:06:11,5.0.2.0,54,blackindirect,4,55,827,minus1,0,b05.bmp,Judgeindirect,blacksquare2.gif,pic69.bmp,Mask.bmp,021717,16:06:11,5.0.2.0,54,whiteindirect,4,56,1243,minus1,0,w06.bmp,Judgeindirect,blacksquare2.gif,pic33.bmp,Mask.bmp,021717,16:06:11,5.0.2.0,54,whiteindirect,4,57,1673,plus1,0,b10.jpg,Judgeindirect,blacksquare2.gif,pic67.bmp,Mask.bmp,021717,16:06:11,5.0.2.0,54,neutral,4,58,829,plus1,0,GREY.bmp,Judgeindirect,blacksquare2.gif,pic28.bmp,Mask.bmp,021717,16:06:11,5.0.2.0,54,neutral,4,59,1372,minus1,0,GREY.bmp,Judgeindirect,blacksquare2.gif,pic12.bmp,Mask.bmp,021717,16:06:11,5.0.2.0,54,whiteindirect,4,60,1325,minus1,0,w07.bmp,Judgeindirect,blacksquare2.gif,pic11.bmp,Mask.bmp,021717,16:06:11,5.0.2.0,54,neutral,4,61,968,minus1,0,GREY.bmp,Judgeindirect,blacksquare2.gif,pic41.bmp,Mask.bmp,021717,16:06:11,5.0.2.0,54,whiteindirect,4,62,1129,plus1,0,b11.jpg,Judgeindirect,blacksquare2.gif,pic21.bmp,Mask.bmp,021717,16:06:11,5.0.2.0,54,blackindirect,4,63,1052,plus1,0,b09.bmp,Judgeindirect,blacksquare2.gif,pic65.bmp,Mask.bmp,021717,16:06:11,5.0.2.0,54,whiteindirect,4,64,473,plus1,0,b12.jpg,Judgeindirect,blacksquare2.gif,pic62.bmp,Mask.bmp,021717,16:06:11,5.0.2.0,54,whiteindirect,4,65,967,plus2,0,w02.bmp,Judgeindirect,blacksquare2.gif,pic66.bmp,Mask.bmp,021717,16:06:11,5.0.2.0,54,neutral,4,66,1136,plus1,0,GREY.bmp,Judgeindirect,blacksquare2.gif,pic54.bmp,Mask.bmp,021717,16:06:11,5.0.2.0,54,neutral,4,67,2802,minus1,0,GREY.bmp,Judgeindirect,blacksquare2.gif,pic53.bmp,Mask.bmp,021717,16:06:11,5.0.2.0,54,whiteindirect,4,68,1313,minus2,0,w03.bmp,Judgeindirect,blacksquare2.gif,pic10.bmp,Mask.bmp,021717,16:06:11,5.0.2.0,54,neutral,4,69,964,minus1,0,GREY.bmp,Judgeindirect,blacksquare2.gif,pic55.bmp,Mask.bmp,021717,16:06:11,5.0.2.0,54,neutral,4,70,1646,minus1,0,GREY.bmp,Judgeindirect,blacksquare2.gif,pic70.bmp,Mask.bmp,021717,16:06:11,5.0.2.0,54,blackindirect,4,71,956,plus1,0,b06.bmp,Judgeindirect,blacksquare2.gif,pic22.bmp,Mask.bmp,021717,16:06:11,5.0.2.0,54,blackindirect,4,72,1053,plus1,0,b03.bmp,Judgeindirect,blacksquare2.gif,pic68.bmp,Mask.bmp,021717,16:06:11,5.0.2.0,54,whitedirect,6,1,3034,plus1,0,w03.bmp,Judgedirect,blacksquare2.gif,pic78.bmp,Mask.bmp,021717,16:06:11,5.0.2.0,54,blackdirect,6,2,3968,minus1,0,b04.bmp,Judgedirect,blacksquare2.gif,pic116.bmp,Mask.bmp,021717,16:06:11,5.0.2.0,54,whitedirect,6,3,1239,minus1,0,w02.bmp,Judgedirect,blacksquare2.gif,pic117.bmp,Mask.bmp,021717,16:06:11,5.0.2.0,54,blackdirect,6,4,1869,plus1,0,b03.bmp,Judgedirect,blacksquare2.gif,pic118.bmp,Mask.bmp,021717,16:06:11,5.0.2.0,54,whitedirect,6,5,1506,minus1,0,w09.bmp,Judgedirect,blacksquare2.gif,pic101.bmp,Mask.bmp,021717,16:06:11,5.0.2.0,54,blackdirect,6,6,2061,plus1,0,b08.bmp,Judgedirect,blacksquare2.gif,pic112.bmp,Mask.bmp,021717,16:06:11,5.0.2.0,54,whitedirect,6,7,1658,minus1,0,w01.bmp,Judgedirect,blacksquare2.gif,pic108.bmp,Mask.bmp,021717,16:06:11,5.0.2.0,54,blackdirect,6,8,1407,plus1,0,b09.bmp,Judgedirect,blacksquare2.gif,pic110.bmp,Mask.bmp,021717,16:06:11,5.0.2.0,54,whitedirect,6,9,1014,plus1,0,w06.bmp,Judgedirect,blacksquare2.gif,pic109.bmp,Mask.bmp,021717,16:06:11,5.0.2.0,54,blackdirect,6,10,1126,minus1,0,b12.bmp,Judgedirect,blacksquare2.gif,pic104.bmp,Mask.bmp,021717,16:06:11,5.0.2.0,54,whitedirect,6,11,761,minus1,0,w07.bmp,Judgedirect,blacksquare2.gif,pic100.bmp,Mask.bmp,021717,16:06:11,5.0.2.0,54,blackdirect,6,12,1531,minus1,0,b06.bmp,Judgedirect,blacksquare2.gif,pic111.bmp,Mask.bmp,021717,16:06:11,5.0.2.0,54,whitedirect,6,13,829,minus1,0,b11.jpg,Judgedirect,blacksquare2.gif,pic80.bmp,Mask.bmp,021717,16:06:11,5.0.2.0,54,blackdirect,6,14,1764,minus1,0,b02.bmp,Judgedirect,blacksquare2.gif,pic106.bmp,Mask.bmp,021717,16:06:11,5.0.2.0,54,whitedirect,6,15,1182,minus1,0,w04.bmp,Judgedirect,blacksquare2.gif,pic102.bmp,Mask.bmp,021717,16:06:11,5.0.2.0,54,blackdirect,6,16,862,minus1,0,b11.bmp,Judgedirect,blacksquare2.gif,pic82.bmp,Mask.bmp,021717,16:06:11,5.0.2.0,54,whitedirect,6,17,716,minus1,0,b12.jpg,Judgedirect,blacksquare2.gif,pic105.bmp,Mask.bmp,021717,16:06:11,5.0.2.0,54,blackdirect,6,18,920,minus1,0,b07.bmp,Judgedirect,blacksquare2.gif,pic79.bmp,Mask.bmp,021717,16:06:11,5.0.2.0,54,whitedirect,6,19,1651,plus1,0,b10.jpg,Judgedirect,blacksquare2.gif,pic114.bmp,Mask.bmp,021717,16:06:11,5.0.2.0,54,blackdirect,6,20,1032,minus1,0,b01.bmp,Judgedirect,blacksquare2.gif,pic113.bmp,Mask.bmp,021717,16:06:11,5.0.2.0,54,whitedirect,6,21,1359,plus1,0,w05.bmp,Judgedirect,blacksquare2.gif,pic107.bmp,Mask.bmp,021717,16:06:11,5.0.2.0,54,blackdirect,6,22,888,plus1,0,b05.bmp,Judgedirect,blacksquare2.gif,pic103.bmp,Mask.bmp,021717,16:06:11,5.0.2.0,54,whitedirect,6,23,621,plus1,0,w08.bmp,Judgedirect,blacksquare2.gif,pic81.bmp,Mask.bmp,021717,16:06:11,5.0.2.0,54,blackdirect,6,24,836,minus1,0,b10.bmp,Judgedirect,blacksquare2.gif,pic115.bmp,Mask.bmp,021717,16:06:11,5.0.2.0,54,gender,7,1,9902,2,1,0,demo,0,0,0,021717,16:06:11,5.0.2.0,54,age,7,1,9902,18,1,0,demo,0,0,0,021717,16:06:11,5.0.2.0,54,ethnicity,7,1,9902,Asian-American,1,0,demo,0,0,0,021717,16:06:20,5.0.2.0,55,practice,1,1,4168,57,1,sample.bmp,orient1,blacksquare2.gif,pic76.bmp,Mask.bmp,021717,16:06:20,5.0.2.0,55,blackindirect,4,1,5691,minus1,0,b11.bmp,Judgeindirect,blacksquare2.gif,pic66.bmp,Mask.bmp,021717,16:06:20,5.0.2.0,55,blackindirect,4,2,8955,minus2,0,b10.bmp,Judgeindirect,blacksquare2.gif,pic18.bmp,Mask.bmp,021717,16:06:20,5.0.2.0,55,whiteindirect,4,3,3984,plus1,0,b10.jpg,Judgeindirect,blacksquare2.gif,pic50.bmp,Mask.bmp,021717,16:06:20,5.0.2.0,55,whiteindirect,4,4,2086,plus2,0,w04.bmp,Judgeindirect,blacksquare2.gif,pic40.bmp,Mask.bmp,021717,16:06:20,5.0.2.0,55,neutral,4,5,2322,plus1,0,GREY.bmp,Judgeindirect,blacksquare2.gif,pic33.bmp,Mask.bmp,021717,16:06:20,5.0.2.0,55,blackindirect,4,6,2748,minus1,0,b09.bmp,Judgeindirect,blacksquare2.gif,pic29.bmp,Mask.bmp,021717,16:06:20,5.0.2.0,55,neutral,4,7,1437,plus2,0,GREY.bmp,Judgeindirect,blacksquare2.gif,pic31.bmp,Mask.bmp,021717,16:06:20,5.0.2.0,55,neutral,4,8,3547,plus2,0,GREY.bmp,Judgeindirect,blacksquare2.gif,pic9.bmp,Mask.bmp,021717,16:06:20,5.0.2.0,55,whiteindirect,4,9,1747,plus1,0,w08.bmp,Judgeindirect,blacksquare2.gif,pic69.bmp,Mask.bmp,021717,16:06:20,5.0.2.0,55,whiteindirect,4,10,1837,minus2,0,w02.bmp,Judgeindirect,blacksquare2.gif,pic51.bmp,Mask.bmp,021717,16:06:20,5.0.2.0,55,blackindirect,4,11,1291,minus2,0,b08.bmp,Judgeindirect,blacksquare2.gif,pic30.bmp,Mask.bmp,021717,16:06:20,5.0.2.0,55,neutral,4,12,1823,minus1,0,GREY.bmp,Judgeindirect,blacksquare2.gif,pic23.bmp,Mask.bmp,021717,16:06:20,5.0.2.0,55,blackindirect,4,13,1885,minus2,0,b02.bmp,Judgeindirect,blacksquare2.gif,pic55.bmp,Mask.bmp,021717,16:06:20,5.0.2.0,55,blackindirect,4,14,2089,minus1,0,b03.bmp,Judgeindirect,blacksquare2.gif,pic22.bmp,Mask.bmp,021717,16:06:20,5.0.2.0,55,whiteindirect,4,15,1573,minus1,0,w07.bmp,Judgeindirect,blacksquare2.gif,pic34.bmp,Mask.bmp,021717,16:06:20,5.0.2.0,55,blackindirect,4,16,1773,minus1,0,b06.bmp,Judgeindirect,blacksquare2.gif,pic60.bmp,Mask.bmp,021717,16:06:20,5.0.2.0,55,neutral,4,17,3237,plus1,0,GREY.bmp,Judgeindirect,blacksquare2.gif,pic72.bmp,Mask.bmp,021717,16:06:20,5.0.2.0,55,blackindirect,4,18,2146,plus2,0,b01.bmp,Judgeindirect,blacksquare2.gif,pic24.bmp,Mask.bmp,021717,16:06:20,5.0.2.0,55,blackindirect,4,19,2060,plus2,0,b12.bmp,Judgeindirect,blacksquare2.gif,pic54.bmp,Mask.bmp,021717,16:06:20,5.0.2.0,55,neutral,4,20,2024,plus1,0,GREY.bmp,Judgeindirect,blacksquare2.gif,pic71.bmp,Mask.bmp,021717,16:06:20,5.0.2.0,55,neutral,4,21,1367,minus1,0,GREY.bmp,Judgeindirect,blacksquare2.gif,pic47.bmp,Mask.bmp,021717,16:06:20,5.0.2.0,55,neutral,4,22,3048,plus1,0,GREY.bmp,Judgeindirect,blacksquare2.gif,pic4.bmp,Mask.bmp,021717,16:06:20,5.0.2.0,55,blackindirect,4,23,1389,minus2,0,b05.bmp,Judgeindirect,blacksquare2.gif,pic75.bmp,Mask.bmp,021717,16:06:20,5.0.2.0,55,neutral,4,24,1509,minus2,0,GREY.bmp,Judgeindirect,blacksquare2.gif,pic12.bmp,Mask.bmp,021717,16:06:20,5.0.2.0,55,blackindirect,4,25,928,minus2,0,b04.bmp,Judgeindirect,blacksquare2.gif,pic59.bmp,Mask.bmp,021717,16:06:20,5.0.2.0,55,whiteindirect,4,26,2467,minus2,0,b12.jpg,Judgeindirect,blacksquare2.gif,pic45.bmp,Mask.bmp,021717,16:06:20,5.0.2.0,55,neutral,4,27,3104,minus1,0,GREY.bmp,Judgeindirect,blacksquare2.gif,pic64.bmp,Mask.bmp,021717,16:06:20,5.0.2.0,55,neutral,4,28,1850,minus2,0,GREY.bmp,Judgeindirect,blacksquare2.gif,pic62.bmp,Mask.bmp,021717,16:06:20,5.0.2.0,55,blackindirect,4,29,752,minus2,0,b07.bmp,Judgeindirect,blacksquare2.gif,pic14.bmp,Mask.bmp,021717,16:06:20,5.0.2.0,55,blackindirect,4,30,1857,plus2,0,b07.bmp,Judgeindirect,blacksquare2.gif,pic32.bmp,Mask.bmp,021717,16:06:20,5.0.2.0,55,whiteindirect,4,31,1111,plus1,0,w01.bmp,Judgeindirect,blacksquare2.gif,pic63.bmp,Mask.bmp,021717,16:06:20,5.0.2.0,55,blackindirect,4,32,1442,plus2,0,b06.bmp,Judgeindirect,blacksquare2.gif,pic43.bmp,Mask.bmp,021717,16:06:20,5.0.2.0,55,whiteindirect,4,33,1232,plus2,0,w06.bmp,Judgeindirect,blacksquare2.gif,pic42.bmp,Mask.bmp,021717,16:06:20,5.0.2.0,55,blackindirect,4,34,1263,plus2,0,b03.bmp,Judgeindirect,blacksquare2.gif,pic36.bmp,Mask.bmp,021717,16:06:20,5.0.2.0,55,whiteindirect,4,35,932,plus2,0,w03.bmp,Judgeindirect,blacksquare2.gif,pic41.bmp,Mask.bmp,021717,16:06:20,5.0.2.0,55,neutral,4,36,671,plus2,0,GREY.bmp,Judgeindirect,blacksquare2.gif,pic27.bmp,Mask.bmp,021717,16:06:20,5.0.2.0,55,neutral,4,37,2413,minus1,0,GREY.bmp,Judgeindirect,blacksquare2.gif,pic11.bmp,Mask.bmp,021717,16:06:20,5.0.2.0,55,whiteindirect,4,38,3387,plus1,0,w05.bmp,Judgeindirect,blacksquare2.gif,pic48.bmp,Mask.bmp,021717,16:06:20,5.0.2.0,55,blackindirect,4,39,2850,minus2,0,b10.bmp,Judgeindirect,blacksquare2.gif,pic52.bmp,Mask.bmp,021717,16:06:20,5.0.2.0,55,whiteindirect,4,40,1663,minus2,0,b11.jpg,Judgeindirect,blacksquare2.gif,pic74.bmp,Mask.bmp,021717,16:06:20,5.0.2.0,55,neutral,4,41,1052,minus2,0,GREY.bmp,Judgeindirect,blacksquare2.gif,pic65.bmp,Mask.bmp,021717,16:06:20,5.0.2.0,55,blackindirect,4,42,3321,minus1,0,b05.bmp,Judgeindirect,blacksquare2.gif,pic2.bmp,Mask.bmp,021717,16:06:20,5.0.2.0,55,neutral,4,43,1467,plus2,0,GREY.bmp,Judgeindirect,blacksquare2.gif,pic44.bmp,Mask.bmp,021717,16:06:20,5.0.2.0,55,neutral,4,44,728,plus2,0,GREY.bmp,Judgeindirect,blacksquare2.gif,pic61.bmp,Mask.bmp,021717,16:06:20,5.0.2.0,55,whiteindirect,4,45,1539,minus1,0,w09.bmp,Judgeindirect,blacksquare2.gif,pic19.bmp,Mask.bmp,021717,16:06:20,5.0.2.0,55,whiteindirect,4,46,1349,plus2,0,b10.jpg,Judgeindirect,blacksquare2.gif,pic17.bmp,Mask.bmp,021717,16:06:20,5.0.2.0,55,whiteindirect,4,47,1383,plus2,0,w07.bmp,Judgeindirect,blacksquare2.gif,pic37.bmp,Mask.bmp,021717,16:06:20,5.0.2.0,55,neutral,4,48,1712,minus2,0,GREY.bmp,Judgeindirect,blacksquare2.gif,pic38.bmp,Mask.bmp,021717,16:06:20,5.0.2.0,55,whiteindirect,4,49,1339,plus1,0,w09.bmp,Judgeindirect,blacksquare2.gif,pic58.bmp,Mask.bmp,021717,16:06:20,5.0.2.0,55,neutral,4,50,1493,plus1,0,GREY.bmp,Judgeindirect,blacksquare2.gif,pic49.bmp,Mask.bmp,021717,16:06:20,5.0.2.0,55,neutral,4,51,1985,plus1,0,GREY.bmp,Judgeindirect,blacksquare2.gif,pic5.bmp,Mask.bmp,021717,16:06:20,5.0.2.0,55,whiteindirect,4,52,1697,plus2,0,w03.bmp,Judgeindirect,blacksquare2.gif,pic39.bmp,Mask.bmp,021717,16:06:20,5.0.2.0,55,whiteindirect,4,53,2332,minus1,0,w06.bmp,Judgeindirect,blacksquare2.gif,pic53.bmp,Mask.bmp,021717,16:06:20,5.0.2.0,55,blackindirect,4,54,2502,minus2,0,b09.bmp,Judgeindirect,blacksquare2.gif,pic56.bmp,Mask.bmp,021717,16:06:20,5.0.2.0,55,whiteindirect,4,55,1417,plus2,0,b12.jpg,Judgeindirect,blacksquare2.gif,pic46.bmp,Mask.bmp,021717,16:06:20,5.0.2.0,55,whiteindirect,4,56,2512,plus1,0,w08.bmp,Judgeindirect,blacksquare2.gif,pic8.bmp,Mask.bmp,021717,16:06:20,5.0.2.0,55,blackindirect,4,57,1746,minus1,0,b02.bmp,Judgeindirect,blacksquare2.gif,pic20.bmp,Mask.bmp,021717,16:06:20,5.0.2.0,55,neutral,4,58,1692,plus2,0,GREY.bmp,Judgeindirect,blacksquare2.gif,pic25.bmp,Mask.bmp,021717,16:06:20,5.0.2.0,55,whiteindirect,4,59,1512,plus2,0,w01.bmp,Judgeindirect,blacksquare2.gif,pic16.bmp,Mask.bmp,021717,16:06:20,5.0.2.0,55,neutral,4,60,1835,plus1,0,GREY.bmp,Judgeindirect,blacksquare2.gif,pic7.bmp,Mask.bmp,021717,16:06:20,5.0.2.0,55,whiteindirect,4,61,2321,minus2,0,b11.jpg,Judgeindirect,blacksquare2.gif,pic1.bmp,Mask.bmp,021717,16:06:20,5.0.2.0,55,blackindirect,4,62,1147,minus2,0,b08.bmp,Judgeindirect,blacksquare2.gif,pic28.bmp,Mask.bmp,021717,16:06:20,5.0.2.0,55,neutral,4,63,1565,plus2,0,GREY.bmp,Judgeindirect,blacksquare2.gif,pic6.bmp,Mask.bmp,021717,16:06:20,5.0.2.0,55,whiteindirect,4,64,1654,plus2,0,w04.bmp,Judgeindirect,blacksquare2.gif,pic70.bmp,Mask.bmp,021717,16:06:20,5.0.2.0,55,neutral,4,65,875,plus2,0,GREY.bmp,Judgeindirect,blacksquare2.gif,pic26.bmp,Mask.bmp,021717,16:06:20,5.0.2.0,55,blackindirect,4,66,1257,plus1,0,b12.bmp,Judgeindirect,blacksquare2.gif,pic67.bmp,Mask.bmp,021717,16:06:20,5.0.2.0,55,blackindirect,4,67,1910,minus2,0,b04.bmp,Judgeindirect,blacksquare2.gif,pic57.bmp,Mask.bmp,021717,16:06:20,5.0.2.0,55,whiteindirect,4,68,2841,plus1,0,w02.bmp,Judgeindirect,blacksquare2.gif,pic73.bmp,Mask.bmp,021717,16:06:20,5.0.2.0,55,blackindirect,4,69,1286,plus1,0,b11.bmp,Judgeindirect,blacksquare2.gif,pic13.bmp,Mask.bmp,021717,16:06:20,5.0.2.0,55,whiteindirect,4,70,1818,minus1,0,w05.bmp,Judgeindirect,blacksquare2.gif,pic3.bmp,Mask.bmp,021717,16:06:20,5.0.2.0,55,neutral,4,71,1504,plus2,0,GREY.bmp,Judgeindirect,blacksquare2.gif,pic68.bmp,Mask.bmp,021717,16:06:20,5.0.2.0,55,blackindirect,4,72,2180,plus1,0,b01.bmp,Judgeindirect,blacksquare2.gif,pic21.bmp,Mask.bmp,021717,16:06:20,5.0.2.0,55,blackdirect,6,1,2183,minus1,0,b04.bmp,Judgedirect,blacksquare2.gif,pic79.bmp,Mask.bmp,021717,16:06:20,5.0.2.0,55,whitedirect,6,2,2463,minus2,0,w03.bmp,Judgedirect,blacksquare2.gif,pic114.bmp,Mask.bmp,021717,16:06:20,5.0.2.0,55,blackdirect,6,3,2140,plus1,0,b03.bmp,Judgedirect,blacksquare2.gif,pic116.bmp,Mask.bmp,021717,16:06:20,5.0.2.0,55,whitedirect,6,4,1829,minus1,0,w07.bmp,Judgedirect,blacksquare2.gif,pic81.bmp,Mask.bmp,021717,16:06:20,5.0.2.0,55,blackdirect,6,5,1268,minus2,0,b10.bmp,Judgedirect,blacksquare2.gif,pic117.bmp,Mask.bmp,021717,16:06:20,5.0.2.0,55,whitedirect,6,6,1673,minus1,0,b12.jpg,Judgedirect,blacksquare2.gif,pic78.bmp,Mask.bmp,021717,16:06:20,5.0.2.0,55,blackdirect,6,7,589,minus1,0,b11.bmp,Judgedirect,blacksquare2.gif,pic115.bmp,Mask.bmp,021717,16:06:20,5.0.2.0,55,whitedirect,6,8,1846,minus2,0,b10.jpg,Judgedirect,blacksquare2.gif,pic80.bmp,Mask.bmp,021717,16:06:20,5.0.2.0,55,blackdirect,6,9,972,minus1,0,b08.bmp,Judgedirect,blacksquare2.gif,pic82.bmp,Mask.bmp,021717,16:06:20,5.0.2.0,55,whitedirect,6,10,1069,plus2,0,w06.bmp,Judgedirect,blacksquare2.gif,pic104.bmp,Mask.bmp,021717,16:06:20,5.0.2.0,55,blackdirect,6,11,1489,plus1,0,b12.bmp,Judgedirect,blacksquare2.gif,pic108.bmp,Mask.bmp,021717,16:06:20,5.0.2.0,55,whitedirect,6,12,1805,plus1,0,w01.bmp,Judgedirect,blacksquare2.gif,pic107.bmp,Mask.bmp,021717,16:06:20,5.0.2.0,55,blackdirect,6,13,1588,minus1,0,b02.bmp,Judgedirect,blacksquare2.gif,pic109.bmp,Mask.bmp,021717,16:06:20,5.0.2.0,55,whitedirect,6,14,572,minus1,0,b11.jpg,Judgedirect,blacksquare2.gif,pic112.bmp,Mask.bmp,021717,16:06:20,5.0.2.0,55,blackdirect,6,15,2974,minus1,0,b09.bmp,Judgedirect,blacksquare2.gif,pic106.bmp,Mask.bmp,021717,16:06:20,5.0.2.0,55,whitedirect,6,16,1005,plus2,0,w05.bmp,Judgedirect,blacksquare2.gif,pic111.bmp,Mask.bmp,021717,16:06:20,5.0.2.0,55,blackdirect,6,17,2533,minus2,0,b05.bmp,Judgedirect,blacksquare2.gif,pic110.bmp,Mask.bmp,021717,16:06:20,5.0.2.0,55,whitedirect,6,18,2662,plus2,0,w09.bmp,Judgedirect,blacksquare2.gif,pic118.bmp,Mask.bmp,021717,16:06:20,5.0.2.0,55,blackdirect,6,19,1611,minus2,0,b01.bmp,Judgedirect,blacksquare2.gif,pic105.bmp,Mask.bmp,021717,16:06:20,5.0.2.0,55,whitedirect,6,20,1074,plus2,0,w08.bmp,Judgedirect,blacksquare2.gif,pic113.bmp,Mask.bmp,021717,16:06:20,5.0.2.0,55,blackdirect,6,21,1519,plus1,0,b06.bmp,Judgedirect,blacksquare2.gif,pic103.bmp,Mask.bmp,021717,16:06:20,5.0.2.0,55,whitedirect,6,22,1858,minus2,0,w02.bmp,Judgedirect,blacksquare2.gif,pic101.bmp,Mask.bmp,021717,16:06:20,5.0.2.0,55,blackdirect,6,23,1351,minus1,0,b07.bmp,Judgedirect,blacksquare2.gif,pic100.bmp,Mask.bmp,021717,16:06:20,5.0.2.0,55,whitedirect,6,24,1064,minus1,0,w04.bmp,Judgedirect,blacksquare2.gif,pic102.bmp,Mask.bmp,021717,16:06:20,5.0.2.0,55,gender,7,1,15568,2,1,0,demo,0,0,0,021717,16:06:20,5.0.2.0,55,age,7,1,15568,19,1,0,demo,0,0,0,021717,16:06:20,5.0.2.0,55,ethnicity,7,1,15568,"White, non-Hispanic or Latino",1,0,demo,0,0,0,021717,16:06:17,5.0.2.0,56,practice,1,1,2842,57,1,sample.bmp,orient1,blacksquare2.gif,pic76.bmp,Mask.bmp,021717,16:06:17,5.0.2.0,56,whitedirect,4,1,5297,plus1,0,b11.jpg,Judgedirect,blacksquare2.gif,pic79.bmp,Mask.bmp,021717,16:06:17,5.0.2.0,56,blackdirect,4,2,1171,plus1,0,b11.bmp,Judgedirect,blacksquare2.gif,pic114.bmp,Mask.bmp,021717,16:06:17,5.0.2.0,56,whitedirect,4,3,3363,minus1,0,w07.bmp,Judgedirect,blacksquare2.gif,pic81.bmp,Mask.bmp,021717,16:06:17,5.0.2.0,56,blackdirect,4,4,5107,plus1,0,b09.bmp,Judgedirect,blacksquare2.gif,pic111.bmp,Mask.bmp,021717,16:06:17,5.0.2.0,56,whitedirect,4,5,3668,plus1,0,b10.jpg,Judgedirect,blacksquare2.gif,pic103.bmp,Mask.bmp,021717,16:06:17,5.0.2.0,56,blackdirect,4,6,920,plus1,0,b01.bmp,Judgedirect,blacksquare2.gif,pic106.bmp,Mask.bmp,021717,16:06:17,5.0.2.0,56,whitedirect,4,7,3259,minus1,0,w06.bmp,Judgedirect,blacksquare2.gif,pic110.bmp,Mask.bmp,021717,16:06:17,5.0.2.0,56,blackdirect,4,8,1495,plus1,0,b06.bmp,Judgedirect,blacksquare2.gif,pic78.bmp,Mask.bmp,021717,16:06:17,5.0.2.0,56,whitedirect,4,9,1939,minus1,0,w08.bmp,Judgedirect,blacksquare2.gif,pic115.bmp,Mask.bmp,021717,16:06:17,5.0.2.0,56,blackdirect,4,10,1484,plus1,0,b08.bmp,Judgedirect,blacksquare2.gif,pic104.bmp,Mask.bmp,021717,16:06:17,5.0.2.0,56,whitedirect,4,11,2560,minus1,0,w01.bmp,Judgedirect,blacksquare2.gif,pic109.bmp,Mask.bmp,021717,16:06:17,5.0.2.0,56,blackdirect,4,12,969,minus1,0,b04.bmp,Judgedirect,blacksquare2.gif,pic80.bmp,Mask.bmp,021717,16:06:17,5.0.2.0,56,whitedirect,4,13,730,minus1,0,w04.bmp,Judgedirect,blacksquare2.gif,pic105.bmp,Mask.bmp,021717,16:06:17,5.0.2.0,56,blackdirect,4,14,1221,plus1,0,b03.bmp,Judgedirect,blacksquare2.gif,pic112.bmp,Mask.bmp,021717,16:06:17,5.0.2.0,56,whitedirect,4,15,2683,minus1,0,w05.bmp,Judgedirect,blacksquare2.gif,pic102.bmp,Mask.bmp,021717,16:06:17,5.0.2.0,56,blackdirect,4,16,1287,plus1,0,b07.bmp,Judgedirect,blacksquare2.gif,pic116.bmp,Mask.bmp,021717,16:06:17,5.0.2.0,56,whitedirect,4,17,1787,minus1,0,w02.bmp,Judgedirect,blacksquare2.gif,pic101.bmp,Mask.bmp,021717,16:06:17,5.0.2.0,56,blackdirect,4,18,1931,plus1,0,b05.bmp,Judgedirect,blacksquare2.gif,pic107.bmp,Mask.bmp,021717,16:06:17,5.0.2.0,56,whitedirect,4,19,917,plus1,0,b12.jpg,Judgedirect,blacksquare2.gif,pic113.bmp,Mask.bmp,021717,16:06:17,5.0.2.0,56,blackdirect,4,20,816,plus1,0,b10.bmp,Judgedirect,blacksquare2.gif,pic117.bmp,Mask.bmp,021717,16:06:17,5.0.2.0,56,whitedirect,4,21,1296,minus1,0,w09.bmp,Judgedirect,blacksquare2.gif,pic82.bmp,Mask.bmp,021717,16:06:17,5.0.2.0,56,blackdirect,4,22,2108,plus2,0,b02.bmp,Judgedirect,blacksquare2.gif,pic108.bmp,Mask.bmp,021717,16:06:17,5.0.2.0,56,whitedirect,4,23,1327,minus1,0,w03.bmp,Judgedirect,blacksquare2.gif,pic118.bmp,Mask.bmp,021717,16:06:17,5.0.2.0,56,blackdirect,4,24,778,plus1,0,b12.bmp,Judgedirect,blacksquare2.gif,pic100.bmp,Mask.bmp,021717,16:06:17,5.0.2.0,56,neutral,6,1,4010,plus1,0,GREY.bmp,Judgeindirect,blacksquare2.gif,pic54.bmp,Mask.bmp,021717,16:06:17,5.0.2.0,56,blackindirect,6,2,3152,plus1,0,b09.bmp,Judgeindirect,blacksquare2.gif,pic42.bmp,Mask.bmp,021717,16:06:17,5.0.2.0,56,whiteindirect,6,3,2336,plus1,0,w04.bmp,Judgeindirect,blacksquare2.gif,pic37.bmp,Mask.bmp,021717,16:06:17,5.0.2.0,56,whiteindirect,6,4,1417,plus1,0,w02.bmp,Judgeindirect,blacksquare2.gif,pic17.bmp,Mask.bmp,021717,16:06:17,5.0.2.0,56,whiteindirect,6,5,776,plus1,0,w05.bmp,Judgeindirect,blacksquare2.gif,pic44.bmp,Mask.bmp,021717,16:06:17,5.0.2.0,56,blackindirect,6,6,833,plus1,0,b02.bmp,Judgeindirect,blacksquare2.gif,pic10.bmp,Mask.bmp,021717,16:06:17,5.0.2.0,56,neutral,6,7,3056,plus2,0,GREY.bmp,Judgeindirect,blacksquare2.gif,pic22.bmp,Mask.bmp,021717,16:06:17,5.0.2.0,56,neutral,6,8,1572,plus2,0,GREY.bmp,Judgeindirect,blacksquare2.gif,pic4.bmp,Mask.bmp,021717,16:06:17,5.0.2.0,56,neutral,6,9,1892,plus1,0,GREY.bmp,Judgeindirect,blacksquare2.gif,pic12.bmp,Mask.bmp,021717,16:06:17,5.0.2.0,56,blackindirect,6,10,1944,plus2,0,b11.bmp,Judgeindirect,blacksquare2.gif,pic38.bmp,Mask.bmp,021717,16:06:17,5.0.2.0,56,whiteindirect,6,11,890,plus2,0,b10.jpg,Judgeindirect,blacksquare2.gif,pic63.bmp,Mask.bmp,021717,16:06:17,5.0.2.0,56,blackindirect,6,12,1486,plus1,0,b12.bmp,Judgeindirect,blacksquare2.gif,pic47.bmp,Mask.bmp,021717,16:06:17,5.0.2.0,56,whiteindirect,6,13,970,plus1,0,w06.bmp,Judgeindirect,blacksquare2.gif,pic55.bmp,Mask.bmp,021717,16:06:17,5.0.2.0,56,neutral,6,14,1739,plus2,0,GREY.bmp,Judgeindirect,blacksquare2.gif,pic60.bmp,Mask.bmp,021717,16:06:17,5.0.2.0,56,whiteindirect,6,15,1725,plus1,0,w08.bmp,Judgeindirect,blacksquare2.gif,pic70.bmp,Mask.bmp,021717,16:06:17,5.0.2.0,56,blackindirect,6,16,1543,plus2,0,b05.bmp,Judgeindirect,blacksquare2.gif,pic61.bmp,Mask.bmp,021717,16:06:17,5.0.2.0,56,neutral,6,17,1177,plus2,0,GREY.bmp,Judgeindirect,blacksquare2.gif,pic49.bmp,Mask.bmp,021717,16:06:17,5.0.2.0,56,whiteindirect,6,18,2242,plus2,0,b11.jpg,Judgeindirect,blacksquare2.gif,pic46.bmp,Mask.bmp,021717,16:06:17,5.0.2.0,56,whiteindirect,6,19,1095,plus1,0,w07.bmp,Judgeindirect,blacksquare2.gif,pic66.bmp,Mask.bmp,021717,16:06:17,5.0.2.0,56,blackindirect,6,20,1436,plus2,0,b04.bmp,Judgeindirect,blacksquare2.gif,pic20.bmp,Mask.bmp,021717,16:06:17,5.0.2.0,56,blackindirect,6,21,1202,plus1,0,b03.bmp,Judgeindirect,blacksquare2.gif,pic21.bmp,Mask.bmp,021717,16:06:17,5.0.2.0,56,neutral,6,22,1073,plus2,0,GREY.bmp,Judgeindirect,blacksquare2.gif,pic45.bmp,Mask.bmp,021717,16:06:17,5.0.2.0,56,whiteindirect,6,23,1670,plus1,0,w01.bmp,Judgeindirect,blacksquare2.gif,pic48.bmp,Mask.bmp,021717,16:06:17,5.0.2.0,56,whiteindirect,6,24,2339,plus2,0,w03.bmp,Judgeindirect,blacksquare2.gif,pic1.bmp,Mask.bmp,021717,16:06:17,5.0.2.0,56,blackindirect,6,25,796,plus2,0,b10.bmp,Judgeindirect,blacksquare2.gif,pic8.bmp,Mask.bmp,021717,16:06:17,5.0.2.0,56,neutral,6,26,3284,plus1,0,GREY.bmp,Judgeindirect,blacksquare2.gif,pic40.bmp,Mask.bmp,021717,16:06:17,5.0.2.0,56,blackindirect,6,27,1112,plus2,0,b08.bmp,Judgeindirect,blacksquare2.gif,pic75.bmp,Mask.bmp,021717,16:06:17,5.0.2.0,56,blackindirect,6,28,1227,plus1,0,b07.bmp,Judgeindirect,blacksquare2.gif,pic43.bmp,Mask.bmp,021717,16:06:17,5.0.2.0,56,whiteindirect,6,29,1682,plus2,0,w09.bmp,Judgeindirect,blacksquare2.gif,pic7.bmp,Mask.bmp,021717,16:06:17,5.0.2.0,56,blackindirect,6,30,942,plus2,0,b06.bmp,Judgeindirect,blacksquare2.gif,pic16.bmp,Mask.bmp,021717,16:06:17,5.0.2.0,56,blackindirect,6,31,1065,plus1,0,b01.bmp,Judgeindirect,blacksquare2.gif,pic73.bmp,Mask.bmp,021717,16:06:17,5.0.2.0,56,blackindirect,6,32,1926,minus1,0,b10.bmp,Judgeindirect,blacksquare2.gif,pic23.bmp,Mask.bmp,021717,16:06:17,5.0.2.0,56,blackindirect,6,33,1345,plus2,0,b07.bmp,Judgeindirect,blacksquare2.gif,pic36.bmp,Mask.bmp,021717,16:06:17,5.0.2.0,56,neutral,6,34,1419,plus1,0,GREY.bmp,Judgeindirect,blacksquare2.gif,pic25.bmp,Mask.bmp,021717,16:06:17,5.0.2.0,56,neutral,6,35,1201,plus2,0,GREY.bmp,Judgeindirect,blacksquare2.gif,pic51.bmp,Mask.bmp,021717,16:06:17,5.0.2.0,56,neutral,6,36,1689,plus1,0,GREY.bmp,Judgeindirect,blacksquare2.gif,pic74.bmp,Mask.bmp,021717,16:06:17,5.0.2.0,56,whiteindirect,6,37,1013,plus2,0,b12.jpg,Judgeindirect,blacksquare2.gif,pic31.bmp,Mask.bmp,021717,16:06:17,5.0.2.0,56,neutral,6,38,1636,plus1,0,GREY.bmp,Judgeindirect,blacksquare2.gif,pic33.bmp,Mask.bmp,021717,16:06:17,5.0.2.0,56,neutral,6,39,890,plus2,0,GREY.bmp,Judgeindirect,blacksquare2.gif,pic62.bmp,Mask.bmp,021717,16:06:17,5.0.2.0,56,blackindirect,6,40,1079,plus1,0,b05.bmp,Judgeindirect,blacksquare2.gif,pic19.bmp,Mask.bmp,021717,16:06:17,5.0.2.0,56,neutral,6,41,1339,plus2,0,GREY.bmp,Judgeindirect,blacksquare2.gif,pic58.bmp,Mask.bmp,021717,16:06:17,5.0.2.0,56,whiteindirect,6,42,1429,plus1,0,w08.bmp,Judgeindirect,blacksquare2.gif,pic69.bmp,Mask.bmp,021717,16:06:17,5.0.2.0,56,neutral,6,43,1020,plus2,0,GREY.bmp,Judgeindirect,blacksquare2.gif,pic24.bmp,Mask.bmp,021717,16:06:17,5.0.2.0,56,blackindirect,6,44,1315,plus2,0,b11.bmp,Judgeindirect,blacksquare2.gif,pic57.bmp,Mask.bmp,021717,16:06:17,5.0.2.0,56,neutral,6,45,407,plus2,0,GREY.bmp,Judgeindirect,blacksquare2.gif,pic59.bmp,Mask.bmp,021717,16:06:17,5.0.2.0,56,whiteindirect,6,46,687,plus1,0,w06.bmp,Judgeindirect,blacksquare2.gif,pic34.bmp,Mask.bmp,021717,16:06:17,5.0.2.0,56,blackindirect,6,47,1251,plus2,0,b02.bmp,Judgeindirect,blacksquare2.gif,pic18.bmp,Mask.bmp,021717,16:06:17,5.0.2.0,56,blackindirect,6,48,753,plus2,0,b03.bmp,Judgeindirect,blacksquare2.gif,pic72.bmp,Mask.bmp,021717,16:06:17,5.0.2.0,56,blackindirect,6,49,2106,plus1,0,b08.bmp,Judgeindirect,blacksquare2.gif,pic11.bmp,Mask.bmp,021717,16:06:17,5.0.2.0,56,whiteindirect,6,50,1301,plus2,0,b10.jpg,Judgeindirect,blacksquare2.gif,pic71.bmp,Mask.bmp,021717,16:06:17,5.0.2.0,56,blackindirect,6,51,1241,plus2,0,b09.bmp,Judgeindirect,blacksquare2.gif,pic13.bmp,Mask.bmp,021717,16:06:17,5.0.2.0,56,whiteindirect,6,52,767,plus2,0,w09.bmp,Judgeindirect,blacksquare2.gif,pic28.bmp,Mask.bmp,021717,16:06:17,5.0.2.0,56,whiteindirect,6,53,904,plus2,0,b12.jpg,Judgeindirect,blacksquare2.gif,pic29.bmp,Mask.bmp,021717,16:06:17,5.0.2.0,56,neutral,6,54,636,plus2,0,GREY.bmp,Judgeindirect,blacksquare2.gif,pic56.bmp,Mask.bmp,021717,16:06:17,5.0.2.0,56,whiteindirect,6,55,626,plus2,0,w05.bmp,Judgeindirect,blacksquare2.gif,pic27.bmp,Mask.bmp,021717,16:06:17,5.0.2.0,56,whiteindirect,6,56,1465,plus1,0,w07.bmp,Judgeindirect,blacksquare2.gif,pic50.bmp,Mask.bmp,021717,16:06:17,5.0.2.0,56,neutral,6,57,1423,plus2,0,GREY.bmp,Judgeindirect,blacksquare2.gif,pic65.bmp,Mask.bmp,021717,16:06:17,5.0.2.0,56,neutral,6,58,1733,plus1,0,GREY.bmp,Judgeindirect,blacksquare2.gif,pic2.bmp,Mask.bmp,021717,16:06:17,5.0.2.0,56,blackindirect,6,59,1184,plus2,0,b06.bmp,Judgeindirect,blacksquare2.gif,pic26.bmp,Mask.bmp,021717,16:06:17,5.0.2.0,56,blackindirect,6,60,1360,plus1,0,b01.bmp,Judgeindirect,blacksquare2.gif,pic6.bmp,Mask.bmp,021717,16:06:17,5.0.2.0,56,whiteindirect,6,61,1569,plus2,0,w02.bmp,Judgeindirect,blacksquare2.gif,pic3.bmp,Mask.bmp,021717,16:06:17,5.0.2.0,56,neutral,6,62,1946,plus1,0,GREY.bmp,Judgeindirect,blacksquare2.gif,pic9.bmp,Mask.bmp,021717,16:06:17,5.0.2.0,56,neutral,6,63,1196,plus1,0,GREY.bmp,Judgeindirect,blacksquare2.gif,pic53.bmp,Mask.bmp,021717,16:06:17,5.0.2.0,56,neutral,6,64,692,plus1,0,GREY.bmp,Judgeindirect,blacksquare2.gif,pic64.bmp,Mask.bmp,021717,16:06:17,5.0.2.0,56,whiteindirect,6,65,912,plus2,0,b11.jpg,Judgeindirect,blacksquare2.gif,pic15.bmp,Mask.bmp,021717,16:06:17,5.0.2.0,56,neutral,6,66,1316,plus1,0,GREY.bmp,Judgeindirect,blacksquare2.gif,pic52.bmp,Mask.bmp,021717,16:06:17,5.0.2.0,56,blackindirect,6,67,1599,plus2,0,b12.bmp,Judgeindirect,blacksquare2.gif,pic67.bmp,Mask.bmp,021717,16:06:17,5.0.2.0,56,blackindirect,6,68,543,plus2,0,b04.bmp,Judgeindirect,blacksquare2.gif,pic39.bmp,Mask.bmp,021717,16:06:17,5.0.2.0,56,whiteindirect,6,69,1938,plus1,0,w01.bmp,Judgeindirect,blacksquare2.gif,pic68.bmp,Mask.bmp,021717,16:06:17,5.0.2.0,56,whiteindirect,6,70,932,plus2,0,w04.bmp,Judgeindirect,blacksquare2.gif,pic32.bmp,Mask.bmp,021717,16:06:17,5.0.2.0,56,whiteindirect,6,71,1079,plus2,0,w03.bmp,Judgeindirect,blacksquare2.gif,pic30.bmp,Mask.bmp,021717,16:06:17,5.0.2.0,56,neutral,6,72,1403,plus2,0,GREY.bmp,Judgeindirect,blacksquare2.gif,pic41.bmp,Mask.bmp,021717,16:06:17,5.0.2.0,56,gender,7,1,11119,2,1,0,demo,0,0,0,021717,16:06:17,5.0.2.0,56,age,7,1,11119,18,1,0,demo,0,0,0,021717,16:06:17,5.0.2.0,56,ethnicity,7,1,11119,"White, non-Hispanic or Latino",1,0,demo,0,0,0,021717,16:06:24,5.0.2.0,57,practice,1,1,5564,57,1,sample.bmp,orient1,blacksquare2.gif,pic76.bmp,Mask.bmp,021717,16:06:24,5.0.2.0,57,blackdirect,4,1,5694,plus1,0,b03.bmp,Judgedirect,blacksquare2.gif,pic115.bmp,Mask.bmp,021717,16:06:24,5.0.2.0,57,whitedirect,4,2,1807,plus1,0,w04.bmp,Judgedirect,blacksquare2.gif,pic81.bmp,Mask.bmp,021717,16:06:24,5.0.2.0,57,blackdirect,4,3,542,plus1,0,b06.bmp,Judgedirect,blacksquare2.gif,pic117.bmp,Mask.bmp,021717,16:06:24,5.0.2.0,57,whitedirect,4,4,3233,plus1,0,w05.bmp,Judgedirect,blacksquare2.gif,pic101.bmp,Mask.bmp,021717,16:06:24,5.0.2.0,57,blackdirect,4,5,5758,plus1,0,b11.bmp,Judgedirect,blacksquare2.gif,pic114.bmp,Mask.bmp,021717,16:06:24,5.0.2.0,57,whitedirect,4,6,3676,plus1,0,w07.bmp,Judgedirect,blacksquare2.gif,pic118.bmp,Mask.bmp,021717,16:06:24,5.0.2.0,57,blackdirect,4,7,1407,plus1,0,b12.bmp,Judgedirect,blacksquare2.gif,pic107.bmp,Mask.bmp,021717,16:06:24,5.0.2.0,57,whitedirect,4,8,5006,plus1,0,w06.bmp,Judgedirect,blacksquare2.gif,pic100.bmp,Mask.bmp,021717,16:06:24,5.0.2.0,57,blackdirect,4,9,3675,plus1,0,b10.bmp,Judgedirect,blacksquare2.gif,pic110.bmp,Mask.bmp,021717,16:06:24,5.0.2.0,57,whitedirect,4,10,5494,plus1,0,w08.bmp,Judgedirect,blacksquare2.gif,pic111.bmp,Mask.bmp,021717,16:06:24,5.0.2.0,57,blackdirect,4,11,2775,plus1,0,b01.bmp,Judgedirect,blacksquare2.gif,pic80.bmp,Mask.bmp,021717,16:06:24,5.0.2.0,57,whitedirect,4,12,3070,plus1,0,b12.jpg,Judgedirect,blacksquare2.gif,pic78.bmp,Mask.bmp,021717,16:06:24,5.0.2.0,57,blackdirect,4,13,3826,plus1,0,b05.bmp,Judgedirect,blacksquare2.gif,pic102.bmp,Mask.bmp,021717,16:06:24,5.0.2.0,57,whitedirect,4,14,1031,minus1,0,w03.bmp,Judgedirect,blacksquare2.gif,pic112.bmp,Mask.bmp,021717,16:06:24,5.0.2.0,57,blackdirect,4,15,1166,plus1,0,b09.bmp,Judgedirect,blacksquare2.gif,pic82.bmp,Mask.bmp,021717,16:06:24,5.0.2.0,57,whitedirect,4,16,1319,minus1,0,b10.jpg,Judgedirect,blacksquare2.gif,pic79.bmp,Mask.bmp,021717,16:06:24,5.0.2.0,57,blackdirect,4,17,1530,minus1,0,b07.bmp,Judgedirect,blacksquare2.gif,pic106.bmp,Mask.bmp,021717,16:06:24,5.0.2.0,57,whitedirect,4,18,805,minus1,0,w09.bmp,Judgedirect,blacksquare2.gif,pic108.bmp,Mask.bmp,021717,16:06:24,5.0.2.0,57,blackdirect,4,19,1396,minus1,0,b02.bmp,Judgedirect,blacksquare2.gif,pic104.bmp,Mask.bmp,021717,16:06:24,5.0.2.0,57,whitedirect,4,20,916,minus1,0,w01.bmp,Judgedirect,blacksquare2.gif,pic109.bmp,Mask.bmp,021717,16:06:24,5.0.2.0,57,blackdirect,4,21,1048,plus1,0,b04.bmp,Judgedirect,blacksquare2.gif,pic105.bmp,Mask.bmp,021717,16:06:24,5.0.2.0,57,whitedirect,4,22,1430,plus1,0,w02.bmp,Judgedirect,blacksquare2.gif,pic113.bmp,Mask.bmp,021717,16:06:24,5.0.2.0,57,blackdirect,4,23,1245,plus1,0,b08.bmp,Judgedirect,blacksquare2.gif,pic116.bmp,Mask.bmp,021717,16:06:24,5.0.2.0,57,whitedirect,4,24,939,minus1,0,b11.jpg,Judgedirect,blacksquare2.gif,pic103.bmp,Mask.bmp,021717,16:06:24,5.0.2.0,57,neutral,6,1,2742,plus1,0,GREY.bmp,Judgeindirect,blacksquare2.gif,pic43.bmp,Mask.bmp,021717,16:06:24,5.0.2.0,57,neutral,6,2,5479,plus1,0,GREY.bmp,Judgeindirect,blacksquare2.gif,pic3.bmp,Mask.bmp,021717,16:06:24,5.0.2.0,57,whiteindirect,6,3,2609,plus1,0,b12.jpg,Judgeindirect,blacksquare2.gif,pic56.bmp,Mask.bmp,021717,16:06:24,5.0.2.0,57,blackindirect,6,4,4807,plus1,0,b10.bmp,Judgeindirect,blacksquare2.gif,pic28.bmp,Mask.bmp,021717,16:06:24,5.0.2.0,57,neutral,6,5,1892,plus1,0,GREY.bmp,Judgeindirect,blacksquare2.gif,pic27.bmp,Mask.bmp,021717,16:06:24,5.0.2.0,57,whiteindirect,6,6,2064,plus1,0,w04.bmp,Judgeindirect,blacksquare2.gif,pic69.bmp,Mask.bmp,021717,16:06:24,5.0.2.0,57,neutral,6,7,1876,plus1,0,GREY.bmp,Judgeindirect,blacksquare2.gif,pic12.bmp,Mask.bmp,021717,16:06:24,5.0.2.0,57,blackindirect,6,8,841,minus1,0,b08.bmp,Judgeindirect,blacksquare2.gif,pic62.bmp,Mask.bmp,021717,16:06:24,5.0.2.0,57,whiteindirect,6,9,559,minus1,0,w06.bmp,Judgeindirect,blacksquare2.gif,pic55.bmp,Mask.bmp,021717,16:06:24,5.0.2.0,57,whiteindirect,6,10,2121,minus1,0,w09.bmp,Judgeindirect,blacksquare2.gif,pic34.bmp,Mask.bmp,021717,16:06:24,5.0.2.0,57,neutral,6,11,2219,plus1,0,GREY.bmp,Judgeindirect,blacksquare2.gif,pic44.bmp,Mask.bmp,021717,16:06:24,5.0.2.0,57,blackindirect,6,12,1665,plus1,0,b12.bmp,Judgeindirect,blacksquare2.gif,pic30.bmp,Mask.bmp,021717,16:06:24,5.0.2.0,57,whiteindirect,6,13,1207,minus1,0,b10.jpg,Judgeindirect,blacksquare2.gif,pic33.bmp,Mask.bmp,021717,16:06:24,5.0.2.0,57,whiteindirect,6,14,1046,minus1,0,w02.bmp,Judgeindirect,blacksquare2.gif,pic21.bmp,Mask.bmp,021717,16:06:24,5.0.2.0,57,whiteindirect,6,15,1132,minus1,0,w03.bmp,Judgeindirect,blacksquare2.gif,pic47.bmp,Mask.bmp,021717,16:06:24,5.0.2.0,57,whiteindirect,6,16,1423,plus1,0,w08.bmp,Judgeindirect,blacksquare2.gif,pic7.bmp,Mask.bmp,021717,16:06:24,5.0.2.0,57,neutral,6,17,1398,plus1,0,GREY.bmp,Judgeindirect,blacksquare2.gif,pic74.bmp,Mask.bmp,021717,16:06:24,5.0.2.0,57,neutral,6,18,1182,plus1,0,GREY.bmp,Judgeindirect,blacksquare2.gif,pic2.bmp,Mask.bmp,021717,16:06:24,5.0.2.0,57,whiteindirect,6,19,1103,minus1,0,b11.jpg,Judgeindirect,blacksquare2.gif,pic45.bmp,Mask.bmp,021717,16:06:24,5.0.2.0,57,whiteindirect,6,20,1474,plus1,0,w05.bmp,Judgeindirect,blacksquare2.gif,pic6.bmp,Mask.bmp,021717,16:06:24,5.0.2.0,57,blackindirect,6,21,991,plus1,0,b01.bmp,Judgeindirect,blacksquare2.gif,pic13.bmp,Mask.bmp,021717,16:06:24,5.0.2.0,57,whiteindirect,6,22,1231,minus1,0,w07.bmp,Judgeindirect,blacksquare2.gif,pic23.bmp,Mask.bmp,021717,16:06:24,5.0.2.0,57,blackindirect,6,23,1126,plus1,0,b03.bmp,Judgeindirect,blacksquare2.gif,pic73.bmp,Mask.bmp,021717,16:06:24,5.0.2.0,57,neutral,6,24,2113,plus1,0,GREY.bmp,Judgeindirect,blacksquare2.gif,pic15.bmp,Mask.bmp,021717,16:06:24,5.0.2.0,57,whiteindirect,6,25,1772,plus1,0,w01.bmp,Judgeindirect,blacksquare2.gif,pic65.bmp,Mask.bmp,021717,16:06:24,5.0.2.0,57,blackindirect,6,26,1716,plus1,0,b09.bmp,Judgeindirect,blacksquare2.gif,pic1.bmp,Mask.bmp,021717,16:06:24,5.0.2.0,57,neutral,6,27,1863,plus1,0,GREY.bmp,Judgeindirect,blacksquare2.gif,pic75.bmp,Mask.bmp,021717,16:06:24,5.0.2.0,57,blackindirect,6,28,1508,plus1,0,b06.bmp,Judgeindirect,blacksquare2.gif,pic11.bmp,Mask.bmp,021717,16:06:24,5.0.2.0,57,blackindirect,6,29,1440,plus1,0,b07.bmp,Judgeindirect,blacksquare2.gif,pic41.bmp,Mask.bmp,021717,16:06:24,5.0.2.0,57,blackindirect,6,30,1550,plus1,0,b02.bmp,Judgeindirect,blacksquare2.gif,pic63.bmp,Mask.bmp,021717,16:06:24,5.0.2.0,57,blackindirect,6,31,1775,plus1,0,b04.bmp,Judgeindirect,blacksquare2.gif,pic5.bmp,Mask.bmp,021717,16:06:24,5.0.2.0,57,blackindirect,6,32,1448,plus1,0,b11.bmp,Judgeindirect,blacksquare2.gif,pic32.bmp,Mask.bmp,021717,16:06:24,5.0.2.0,57,blackindirect,6,33,1270,plus1,0,b05.bmp,Judgeindirect,blacksquare2.gif,pic71.bmp,Mask.bmp,021717,16:06:24,5.0.2.0,57,neutral,6,34,1499,plus1,0,GREY.bmp,Judgeindirect,blacksquare2.gif,pic10.bmp,Mask.bmp,021717,16:06:24,5.0.2.0,57,neutral,6,35,1494,plus1,0,GREY.bmp,Judgeindirect,blacksquare2.gif,pic49.bmp,Mask.bmp,021717,16:06:24,5.0.2.0,57,whiteindirect,6,36,1482,minus1,0,w07.bmp,Judgeindirect,blacksquare2.gif,pic57.bmp,Mask.bmp,021717,16:06:24,5.0.2.0,57,whiteindirect,6,37,1511,minus1,0,w01.bmp,Judgeindirect,blacksquare2.gif,pic20.bmp,Mask.bmp,021717,16:06:24,5.0.2.0,57,blackindirect,6,38,2682,minus1,0,b10.bmp,Judgeindirect,blacksquare2.gif,pic14.bmp,Mask.bmp,021717,16:06:24,5.0.2.0,57,blackindirect,6,39,830,plus1,0,b04.bmp,Judgeindirect,blacksquare2.gif,pic58.bmp,Mask.bmp,021717,16:06:24,5.0.2.0,57,neutral,6,40,1469,plus1,0,GREY.bmp,Judgeindirect,blacksquare2.gif,pic68.bmp,Mask.bmp,021717,16:06:24,5.0.2.0,57,blackindirect,6,41,2850,plus1,0,b08.bmp,Judgeindirect,blacksquare2.gif,pic40.bmp,Mask.bmp,021717,16:06:24,5.0.2.0,57,blackindirect,6,42,911,plus1,0,b02.bmp,Judgeindirect,blacksquare2.gif,pic26.bmp,Mask.bmp,021717,16:06:24,5.0.2.0,57,whiteindirect,6,43,970,plus1,0,w05.bmp,Judgeindirect,blacksquare2.gif,pic64.bmp,Mask.bmp,021717,16:06:24,5.0.2.0,57,neutral,6,44,1699,plus1,0,GREY.bmp,Judgeindirect,blacksquare2.gif,pic16.bmp,Mask.bmp,021717,16:06:24,5.0.2.0,57,neutral,6,45,1239,plus1,0,GREY.bmp,Judgeindirect,blacksquare2.gif,pic53.bmp,Mask.bmp,021717,16:06:24,5.0.2.0,57,blackindirect,6,46,941,plus1,0,b09.bmp,Judgeindirect,blacksquare2.gif,pic18.bmp,Mask.bmp,021717,16:06:24,5.0.2.0,57,whiteindirect,6,47,992,plus1,0,w06.bmp,Judgeindirect,blacksquare2.gif,pic25.bmp,Mask.bmp,021717,16:06:24,5.0.2.0,57,blackindirect,6,48,944,plus1,0,b06.bmp,Judgeindirect,blacksquare2.gif,pic22.bmp,Mask.bmp,021717,16:06:24,5.0.2.0,57,blackindirect,6,49,1058,plus1,0,b05.bmp,Judgeindirect,blacksquare2.gif,pic46.bmp,Mask.bmp,021717,16:06:24,5.0.2.0,57,whiteindirect,6,50,1096,plus1,0,b12.jpg,Judgeindirect,blacksquare2.gif,pic48.bmp,Mask.bmp,021717,16:06:24,5.0.2.0,57,neutral,6,51,1068,plus1,0,GREY.bmp,Judgeindirect,blacksquare2.gif,pic17.bmp,Mask.bmp,021717,16:06:24,5.0.2.0,57,neutral,6,52,1329,plus1,0,GREY.bmp,Judgeindirect,blacksquare2.gif,pic50.bmp,Mask.bmp,021717,16:06:24,5.0.2.0,57,blackindirect,6,53,1044,plus1,0,b01.bmp,Judgeindirect,blacksquare2.gif,pic54.bmp,Mask.bmp,021717,16:06:24,5.0.2.0,57,whiteindirect,6,54,1042,plus1,0,b11.jpg,Judgeindirect,blacksquare2.gif,pic19.bmp,Mask.bmp,021717,16:06:24,5.0.2.0,57,neutral,6,55,1280,plus1,0,GREY.bmp,Judgeindirect,blacksquare2.gif,pic31.bmp,Mask.bmp,021717,16:06:24,5.0.2.0,57,neutral,6,56,1237,plus1,0,GREY.bmp,Judgeindirect,blacksquare2.gif,pic24.bmp,Mask.bmp,021717,16:06:24,5.0.2.0,57,whiteindirect,6,57,1187,plus1,0,w03.bmp,Judgeindirect,blacksquare2.gif,pic67.bmp,Mask.bmp,021717,16:06:24,5.0.2.0,57,blackindirect,6,58,1171,plus1,0,b12.bmp,Judgeindirect,blacksquare2.gif,pic70.bmp,Mask.bmp,021717,16:06:24,5.0.2.0,57,whiteindirect,6,59,3436,plus1,0,w02.bmp,Judgeindirect,blacksquare2.gif,pic66.bmp,Mask.bmp,021717,16:06:24,5.0.2.0,57,whiteindirect,6,60,1457,plus1,0,b10.jpg,Judgeindirect,blacksquare2.gif,pic36.bmp,Mask.bmp,021717,16:06:24,5.0.2.0,57,neutral,6,61,1198,plus1,0,GREY.bmp,Judgeindirect,blacksquare2.gif,pic39.bmp,Mask.bmp,021717,16:06:24,5.0.2.0,57,blackindirect,6,62,1254,plus1,0,b07.bmp,Judgeindirect,blacksquare2.gif,pic60.bmp,Mask.bmp,021717,16:06:24,5.0.2.0,57,neutral,6,63,1084,plus1,0,GREY.bmp,Judgeindirect,blacksquare2.gif,pic59.bmp,Mask.bmp,021717,16:06:24,5.0.2.0,57,whiteindirect,6,64,1064,minus1,0,w04.bmp,Judgeindirect,blacksquare2.gif,pic42.bmp,Mask.bmp,021717,16:06:24,5.0.2.0,57,whiteindirect,6,65,1037,minus1,0,w09.bmp,Judgeindirect,blacksquare2.gif,pic52.bmp,Mask.bmp,021717,16:06:24,5.0.2.0,57,blackindirect,6,66,844,plus1,0,b03.bmp,Judgeindirect,blacksquare2.gif,pic8.bmp,Mask.bmp,021717,16:06:24,5.0.2.0,57,neutral,6,67,714,plus1,0,GREY.bmp,Judgeindirect,blacksquare2.gif,pic38.bmp,Mask.bmp,021717,16:06:24,5.0.2.0,57,neutral,6,68,1446,plus1,0,GREY.bmp,Judgeindirect,blacksquare2.gif,pic29.bmp,Mask.bmp,021717,16:06:24,5.0.2.0,57,neutral,6,69,1588,plus1,0,GREY.bmp,Judgeindirect,blacksquare2.gif,pic61.bmp,Mask.bmp,021717,16:06:24,5.0.2.0,57,neutral,6,70,988,plus1,0,GREY.bmp,Judgeindirect,blacksquare2.gif,pic4.bmp,Mask.bmp,021717,16:06:24,5.0.2.0,57,blackindirect,6,71,1260,minus1,0,b11.bmp,Judgeindirect,blacksquare2.gif,pic51.bmp,Mask.bmp,021717,16:06:24,5.0.2.0,57,whiteindirect,6,72,978,plus1,0,w08.bmp,Judgeindirect,blacksquare2.gif,pic9.bmp,Mask.bmp,021717,16:06:24,5.0.2.0,57,gender,7,1,16720,1,1,0,demo,0,0,0,021717,16:06:24,5.0.2.0,57,age,7,1,16720,18,1,0,demo,0,0,0,021717,16:06:24,5.0.2.0,57,ethnicity,7,1,16720,Latino or Hispanic,1,0,demo,0,0,0,021717,16:06:31,5.0.2.0,58,practice,1,1,9164,57,1,sample.bmp,orient1,blacksquare2.gif,pic76.bmp,Mask.bmp,021717,16:06:31,5.0.2.0,58,whiteindirect,4,1,16427,plus1,0,w05.bmp,Judgeindirect,blacksquare2.gif,pic6.bmp,Mask.bmp,021717,16:06:31,5.0.2.0,58,blackindirect,4,2,7295,plus1,0,b06.bmp,Judgeindirect,blacksquare2.gif,pic71.bmp,Mask.bmp,021717,16:06:31,5.0.2.0,58,whiteindirect,4,3,10263,plus1,0,b10.jpg,Judgeindirect,blacksquare2.gif,pic67.bmp,Mask.bmp,021717,16:06:31,5.0.2.0,58,whiteindirect,4,4,4870,plus1,0,w04.bmp,Judgeindirect,blacksquare2.gif,pic25.bmp,Mask.bmp,021717,16:06:31,5.0.2.0,58,whiteindirect,4,5,4000,plus2,0,w01.bmp,Judgeindirect,blacksquare2.gif,pic36.bmp,Mask.bmp,021717,16:06:31,5.0.2.0,58,blackindirect,4,6,3319,plus2,0,b11.bmp,Judgeindirect,blacksquare2.gif,pic34.bmp,Mask.bmp,021717,16:06:31,5.0.2.0,58,neutral,4,7,6152,plus1,0,GREY.bmp,Judgeindirect,blacksquare2.gif,pic61.bmp,Mask.bmp,021717,16:06:31,5.0.2.0,58,whiteindirect,4,8,3255,plus1,0,b12.jpg,Judgeindirect,blacksquare2.gif,pic69.bmp,Mask.bmp,021717,16:06:31,5.0.2.0,58,whiteindirect,4,9,9418,plus1,0,w06.bmp,Judgeindirect,blacksquare2.gif,pic3.bmp,Mask.bmp,021717,16:06:31,5.0.2.0,58,neutral,4,10,4268,plus2,0,GREY.bmp,Judgeindirect,blacksquare2.gif,pic24.bmp,Mask.bmp,021717,16:06:31,5.0.2.0,58,neutral,4,11,4040,plus1,0,GREY.bmp,Judgeindirect,blacksquare2.gif,pic70.bmp,Mask.bmp,021717,16:06:31,5.0.2.0,58,whiteindirect,4,12,6412,plus1,0,b11.jpg,Judgeindirect,blacksquare2.gif,pic39.bmp,Mask.bmp,021717,16:06:31,5.0.2.0,58,whiteindirect,4,13,6407,plus1,0,w07.bmp,Judgeindirect,blacksquare2.gif,pic40.bmp,Mask.bmp,021717,16:06:31,5.0.2.0,58,whiteindirect,4,14,2731,plus1,0,w03.bmp,Judgeindirect,blacksquare2.gif,pic46.bmp,Mask.bmp,021717,16:06:31,5.0.2.0,58,neutral,4,15,2845,plus1,0,GREY.bmp,Judgeindirect,blacksquare2.gif,pic62.bmp,Mask.bmp,021717,16:06:31,5.0.2.0,58,neutral,4,16,3522,plus1,0,GREY.bmp,Judgeindirect,blacksquare2.gif,pic14.bmp,Mask.bmp,021717,16:06:31,5.0.2.0,58,blackindirect,4,17,5251,plus1,0,b12.bmp,Judgeindirect,blacksquare2.gif,pic27.bmp,Mask.bmp,021717,16:06:31,5.0.2.0,58,blackindirect,4,18,3278,plus2,0,b03.bmp,Judgeindirect,blacksquare2.gif,pic56.bmp,Mask.bmp,021717,16:06:31,5.0.2.0,58,neutral,4,19,2226,plus1,0,GREY.bmp,Judgeindirect,blacksquare2.gif,pic41.bmp,Mask.bmp,021717,16:06:31,5.0.2.0,58,neutral,4,20,1800,plus1,0,GREY.bmp,Judgeindirect,blacksquare2.gif,pic2.bmp,Mask.bmp,021717,16:06:31,5.0.2.0,58,blackindirect,4,21,3552,plus1,0,b08.bmp,Judgeindirect,blacksquare2.gif,pic8.bmp,Mask.bmp,021717,16:06:31,5.0.2.0,58,whiteindirect,4,22,4040,plus1,0,w08.bmp,Judgeindirect,blacksquare2.gif,pic18.bmp,Mask.bmp,021717,16:06:31,5.0.2.0,58,whiteindirect,4,23,5836,plus1,0,w09.bmp,Judgeindirect,blacksquare2.gif,pic4.bmp,Mask.bmp,021717,16:06:31,5.0.2.0,58,blackindirect,4,24,2615,plus1,0,b05.bmp,Judgeindirect,blacksquare2.gif,pic13.bmp,Mask.bmp,021717,16:06:31,5.0.2.0,58,whiteindirect,4,25,6414,plus1,0,w02.bmp,Judgeindirect,blacksquare2.gif,pic7.bmp,Mask.bmp,021717,16:06:31,5.0.2.0,58,neutral,4,26,2538,plus2,0,GREY.bmp,Judgeindirect,blacksquare2.gif,pic12.bmp,Mask.bmp,021717,16:06:31,5.0.2.0,58,blackindirect,4,27,1755,plus1,0,b01.bmp,Judgeindirect,blacksquare2.gif,pic28.bmp,Mask.bmp,021717,16:06:31,5.0.2.0,58,blackindirect,4,28,2388,plus1,0,b10.bmp,Judgeindirect,blacksquare2.gif,pic45.bmp,Mask.bmp,021717,16:06:31,5.0.2.0,58,neutral,4,29,1811,plus2,0,GREY.bmp,Judgeindirect,blacksquare2.gif,pic33.bmp,Mask.bmp,021717,16:06:31,5.0.2.0,58,whiteindirect,4,30,1730,plus1,0,w05.bmp,Judgeindirect,blacksquare2.gif,pic21.bmp,Mask.bmp,021717,16:06:31,5.0.2.0,58,blackindirect,4,31,2165,plus1,0,b09.bmp,Judgeindirect,blacksquare2.gif,pic50.bmp,Mask.bmp,021717,16:06:31,5.0.2.0,58,whiteindirect,4,32,4494,plus1,0,w07.bmp,Judgeindirect,blacksquare2.gif,pic1.bmp,Mask.bmp,021717,16:06:31,5.0.2.0,58,neutral,4,33,3656,plus1,0,GREY.bmp,Judgeindirect,blacksquare2.gif,pic68.bmp,Mask.bmp,021717,16:06:31,5.0.2.0,58,blackindirect,4,34,2211,plus2,0,b07.bmp,Judgeindirect,blacksquare2.gif,pic63.bmp,Mask.bmp,021717,16:06:31,5.0.2.0,58,neutral,4,35,5314,plus1,0,GREY.bmp,Judgeindirect,blacksquare2.gif,pic38.bmp,Mask.bmp,021717,16:06:31,5.0.2.0,58,neutral,4,36,2355,plus1,0,GREY.bmp,Judgeindirect,blacksquare2.gif,pic44.bmp,Mask.bmp,021717,16:06:31,5.0.2.0,58,neutral,4,37,1667,plus1,0,GREY.bmp,Judgeindirect,blacksquare2.gif,pic31.bmp,Mask.bmp,021717,16:06:31,5.0.2.0,58,blackindirect,4,38,4696,plus1,0,b04.bmp,Judgeindirect,blacksquare2.gif,pic57.bmp,Mask.bmp,021717,16:06:31,5.0.2.0,58,neutral,4,39,2130,plus2,0,GREY.bmp,Judgeindirect,blacksquare2.gif,pic17.bmp,Mask.bmp,021717,16:06:31,5.0.2.0,58,blackindirect,4,40,1780,plus1,0,b02.bmp,Judgeindirect,blacksquare2.gif,pic64.bmp,Mask.bmp,021717,16:06:31,5.0.2.0,58,blackindirect,4,41,1564,plus1,0,b04.bmp,Judgeindirect,blacksquare2.gif,pic47.bmp,Mask.bmp,021717,16:06:31,5.0.2.0,58,blackindirect,4,42,4005,plus2,0,b09.bmp,Judgeindirect,blacksquare2.gif,pic20.bmp,Mask.bmp,021717,16:06:31,5.0.2.0,58,whiteindirect,4,43,2595,plus2,0,w08.bmp,Judgeindirect,blacksquare2.gif,pic74.bmp,Mask.bmp,021717,16:06:31,5.0.2.0,58,blackindirect,4,44,2146,plus1,0,b11.bmp,Judgeindirect,blacksquare2.gif,pic48.bmp,Mask.bmp,021717,16:06:31,5.0.2.0,58,blackindirect,4,45,1636,plus1,0,b10.bmp,Judgeindirect,blacksquare2.gif,pic52.bmp,Mask.bmp,021717,16:06:31,5.0.2.0,58,neutral,4,46,2178,plus2,0,GREY.bmp,Judgeindirect,blacksquare2.gif,pic5.bmp,Mask.bmp,021717,16:06:31,5.0.2.0,58,neutral,4,47,3218,plus1,0,GREY.bmp,Judgeindirect,blacksquare2.gif,pic15.bmp,Mask.bmp,021717,16:06:31,5.0.2.0,58,whiteindirect,4,48,1480,plus1,0,w09.bmp,Judgeindirect,blacksquare2.gif,pic51.bmp,Mask.bmp,021717,16:06:31,5.0.2.0,58,neutral,4,49,1341,plus2,0,GREY.bmp,Judgeindirect,blacksquare2.gif,pic9.bmp,Mask.bmp,021717,16:06:31,5.0.2.0,58,whiteindirect,4,50,1159,plus1,0,w02.bmp,Judgeindirect,blacksquare2.gif,pic42.bmp,Mask.bmp,021717,16:06:31,5.0.2.0,58,whiteindirect,4,51,2744,plus1,0,w06.bmp,Judgeindirect,blacksquare2.gif,pic26.bmp,Mask.bmp,021717,16:06:31,5.0.2.0,58,whiteindirect,4,52,1169,plus1,0,w01.bmp,Judgeindirect,blacksquare2.gif,pic30.bmp,Mask.bmp,021717,16:06:31,5.0.2.0,58,neutral,4,53,1586,plus2,0,GREY.bmp,Judgeindirect,blacksquare2.gif,pic49.bmp,Mask.bmp,021717,16:06:31,5.0.2.0,58,neutral,4,54,1026,plus1,0,GREY.bmp,Judgeindirect,blacksquare2.gif,pic73.bmp,Mask.bmp,021717,16:06:31,5.0.2.0,58,neutral,4,55,2585,plus1,0,GREY.bmp,Judgeindirect,blacksquare2.gif,pic60.bmp,Mask.bmp,021717,16:06:31,5.0.2.0,58,blackindirect,4,56,1296,plus1,0,b07.bmp,Judgeindirect,blacksquare2.gif,pic43.bmp,Mask.bmp,021717,16:06:31,5.0.2.0,58,neutral,4,57,1300,plus2,0,GREY.bmp,Judgeindirect,blacksquare2.gif,pic22.bmp,Mask.bmp,021717,16:06:31,5.0.2.0,58,whiteindirect,4,58,952,plus1,0,w03.bmp,Judgeindirect,blacksquare2.gif,pic53.bmp,Mask.bmp,021717,16:06:31,5.0.2.0,58,blackindirect,4,59,1034,plus2,0,b08.bmp,Judgeindirect,blacksquare2.gif,pic66.bmp,Mask.bmp,021717,16:06:31,5.0.2.0,58,whiteindirect,4,60,1176,plus2,0,w04.bmp,Judgeindirect,blacksquare2.gif,pic29.bmp,Mask.bmp,021717,16:06:31,5.0.2.0,58,whiteindirect,4,61,1433,plus1,0,b11.jpg,Judgeindirect,blacksquare2.gif,pic37.bmp,Mask.bmp,021717,16:06:31,5.0.2.0,58,neutral,4,62,1199,plus2,0,GREY.bmp,Judgeindirect,blacksquare2.gif,pic16.bmp,Mask.bmp,021717,16:06:31,5.0.2.0,58,neutral,4,63,1048,plus2,0,GREY.bmp,Judgeindirect,blacksquare2.gif,pic75.bmp,Mask.bmp,021717,16:06:31,5.0.2.0,58,blackindirect,4,64,1142,plus2,0,b02.bmp,Judgeindirect,blacksquare2.gif,pic58.bmp,Mask.bmp,021717,16:06:31,5.0.2.0,58,whiteindirect,4,65,1120,plus2,0,b12.jpg,Judgeindirect,blacksquare2.gif,pic11.bmp,Mask.bmp,021717,16:06:31,5.0.2.0,58,neutral,4,66,1331,plus2,0,GREY.bmp,Judgeindirect,blacksquare2.gif,pic19.bmp,Mask.bmp,021717,16:06:31,5.0.2.0,58,blackindirect,4,67,1454,plus1,0,b12.bmp,Judgeindirect,blacksquare2.gif,pic10.bmp,Mask.bmp,021717,16:06:31,5.0.2.0,58,blackindirect,4,68,1347,plus1,0,b03.bmp,Judgeindirect,blacksquare2.gif,pic65.bmp,Mask.bmp,021717,16:06:31,5.0.2.0,58,blackindirect,4,69,969,plus2,0,b06.bmp,Judgeindirect,blacksquare2.gif,pic54.bmp,Mask.bmp,021717,16:06:31,5.0.2.0,58,blackindirect,4,70,878,plus2,0,b01.bmp,Judgeindirect,blacksquare2.gif,pic23.bmp,Mask.bmp,021717,16:06:31,5.0.2.0,58,blackindirect,4,71,2363,plus1,0,b05.bmp,Judgeindirect,blacksquare2.gif,pic59.bmp,Mask.bmp,021717,16:06:31,5.0.2.0,58,whiteindirect,4,72,1052,plus2,0,b10.jpg,Judgeindirect,blacksquare2.gif,pic32.bmp,Mask.bmp,021717,16:06:31,5.0.2.0,58,blackdirect,6,1,2525,plus1,0,b09.bmp,Judgedirect,blacksquare2.gif,pic118.bmp,Mask.bmp,021717,16:06:31,5.0.2.0,58,whitedirect,6,2,1575,plus1,0,w06.bmp,Judgedirect,blacksquare2.gif,pic108.bmp,Mask.bmp,021717,16:06:31,5.0.2.0,58,blackdirect,6,3,984,minus1,0,b04.bmp,Judgedirect,blacksquare2.gif,pic81.bmp,Mask.bmp,021717,16:06:31,5.0.2.0,58,whitedirect,6,4,1440,minus1,0,w05.bmp,Judgedirect,blacksquare2.gif,pic80.bmp,Mask.bmp,021717,16:06:31,5.0.2.0,58,blackdirect,6,5,758,minus1,0,b11.bmp,Judgedirect,blacksquare2.gif,pic82.bmp,Mask.bmp,021717,16:06:31,5.0.2.0,58,whitedirect,6,6,560,minus1,0,b12.jpg,Judgedirect,blacksquare2.gif,pic117.bmp,Mask.bmp,021717,16:06:31,5.0.2.0,58,blackdirect,6,7,1194,minus1,0,b12.bmp,Judgedirect,blacksquare2.gif,pic107.bmp,Mask.bmp,021717,16:06:31,5.0.2.0,58,whitedirect,6,8,1666,minus1,0,w09.bmp,Judgedirect,blacksquare2.gif,pic79.bmp,Mask.bmp,021717,16:06:31,5.0.2.0,58,blackdirect,6,9,2008,plus1,0,b01.bmp,Judgedirect,blacksquare2.gif,pic115.bmp,Mask.bmp,021717,16:06:31,5.0.2.0,58,whitedirect,6,10,879,minus1,0,w07.bmp,Judgedirect,blacksquare2.gif,pic100.bmp,Mask.bmp,021717,16:06:31,5.0.2.0,58,blackdirect,6,11,1300,minus1,0,b05.bmp,Judgedirect,blacksquare2.gif,pic111.bmp,Mask.bmp,021717,16:06:31,5.0.2.0,58,whitedirect,6,12,1064,minus1,0,b10.jpg,Judgedirect,blacksquare2.gif,pic103.bmp,Mask.bmp,021717,16:06:31,5.0.2.0,58,blackdirect,6,13,701,minus1,0,b03.bmp,Judgedirect,blacksquare2.gif,pic114.bmp,Mask.bmp,021717,16:06:31,5.0.2.0,58,whitedirect,6,14,465,minus1,0,w01.bmp,Judgedirect,blacksquare2.gif,pic104.bmp,Mask.bmp,021717,16:06:31,5.0.2.0,58,blackdirect,6,15,495,minus1,0,b02.bmp,Judgedirect,blacksquare2.gif,pic105.bmp,Mask.bmp,021717,16:06:31,5.0.2.0,58,whitedirect,6,16,572,minus1,0,w02.bmp,Judgedirect,blacksquare2.gif,pic109.bmp,Mask.bmp,021717,16:06:31,5.0.2.0,58,blackdirect,6,17,789,minus1,0,b08.bmp,Judgedirect,blacksquare2.gif,pic113.bmp,Mask.bmp,021717,16:06:31,5.0.2.0,58,whitedirect,6,18,758,minus1,0,b11.jpg,Judgedirect,blacksquare2.gif,pic110.bmp,Mask.bmp,021717,16:06:31,5.0.2.0,58,blackdirect,6,19,1136,minus1,0,b07.bmp,Judgedirect,blacksquare2.gif,pic101.bmp,Mask.bmp,021717,16:06:31,5.0.2.0,58,whitedirect,6,20,1162,minus1,0,w04.bmp,Judgedirect,blacksquare2.gif,pic102.bmp,Mask.bmp,021717,16:06:31,5.0.2.0,58,blackdirect,6,21,2195,minus2,0,b10.bmp,Judgedirect,blacksquare2.gif,pic112.bmp,Mask.bmp,021717,16:06:31,5.0.2.0,58,whitedirect,6,22,987,minus1,0,w03.bmp,Judgedirect,blacksquare2.gif,pic78.bmp,Mask.bmp,021717,16:06:31,5.0.2.0,58,blackdirect,6,23,1523,minus1,0,b06.bmp,Judgedirect,blacksquare2.gif,pic116.bmp,Mask.bmp,021717,16:06:31,5.0.2.0,58,whitedirect,6,24,806,minus1,0,w08.bmp,Judgedirect,blacksquare2.gif,pic106.bmp,Mask.bmp,021717,16:06:31,5.0.2.0,58,gender,7,1,10109,2,1,0,demo,0,0,0,021717,16:06:31,5.0.2.0,58,age,7,1,10109,18,1,0,demo,0,0,0,021717,16:06:31,5.0.2.0,58,ethnicity,7,1,10109,"White, non-Hispanic or Latino",1,0,demo,0,0,0,021717,16:06:38,5.0.2.0,59,practice,1,1,15476,57,1,sample.bmp,orient1,blacksquare2.gif,pic76.bmp,Mask.bmp,021717,16:06:38,5.0.2.0,59,whiteindirect,4,1,12147,minus1,0,w01.bmp,Judgeindirect,blacksquare2.gif,pic53.bmp,Mask.bmp,021717,16:06:38,5.0.2.0,59,whiteindirect,4,2,6957,plus1,0,w09.bmp,Judgeindirect,blacksquare2.gif,pic55.bmp,Mask.bmp,021717,16:06:38,5.0.2.0,59,whiteindirect,4,3,3970,plus1,0,w06.bmp,Judgeindirect,blacksquare2.gif,pic45.bmp,Mask.bmp,021717,16:06:38,5.0.2.0,59,whiteindirect,4,4,2281,plus1,0,b12.jpg,Judgeindirect,blacksquare2.gif,pic59.bmp,Mask.bmp,021717,16:06:38,5.0.2.0,59,blackindirect,4,5,2989,plus1,0,b05.bmp,Judgeindirect,blacksquare2.gif,pic15.bmp,Mask.bmp,021717,16:06:38,5.0.2.0,59,whiteindirect,4,6,1772,minus1,0,w02.bmp,Judgeindirect,blacksquare2.gif,pic33.bmp,Mask.bmp,021717,16:06:38,5.0.2.0,59,neutral,4,7,3829,plus1,0,GREY.bmp,Judgeindirect,blacksquare2.gif,pic18.bmp,Mask.bmp,021717,16:06:38,5.0.2.0,59,blackindirect,4,8,4002,plus1,0,b01.bmp,Judgeindirect,blacksquare2.gif,pic24.bmp,Mask.bmp,021717,16:06:38,5.0.2.0,59,neutral,4,9,2416,plus2,0,GREY.bmp,Judgeindirect,blacksquare2.gif,pic9.bmp,Mask.bmp,021717,16:06:38,5.0.2.0,59,whiteindirect,4,10,6390,minus1,0,b11.jpg,Judgeindirect,blacksquare2.gif,pic54.bmp,Mask.bmp,021717,16:06:38,5.0.2.0,59,neutral,4,11,2187,plus1,0,GREY.bmp,Judgeindirect,blacksquare2.gif,pic49.bmp,Mask.bmp,021717,16:06:38,5.0.2.0,59,whiteindirect,4,12,3354,plus1,0,w05.bmp,Judgeindirect,blacksquare2.gif,pic42.bmp,Mask.bmp,021717,16:06:38,5.0.2.0,59,blackindirect,4,13,4770,plus1,0,b04.bmp,Judgeindirect,blacksquare2.gif,pic5.bmp,Mask.bmp,021717,16:06:38,5.0.2.0,59,whiteindirect,4,14,1921,plus1,0,w08.bmp,Judgeindirect,blacksquare2.gif,pic68.bmp,Mask.bmp,021717,16:06:38,5.0.2.0,59,whiteindirect,4,15,3131,plus1,0,b10.jpg,Judgeindirect,blacksquare2.gif,pic13.bmp,Mask.bmp,021717,16:06:38,5.0.2.0,59,neutral,4,16,1708,plus1,0,GREY.bmp,Judgeindirect,blacksquare2.gif,pic64.bmp,Mask.bmp,021717,16:06:38,5.0.2.0,59,blackindirect,4,17,3479,minus1,0,b10.bmp,Judgeindirect,blacksquare2.gif,pic60.bmp,Mask.bmp,021717,16:06:38,5.0.2.0,59,neutral,4,18,3835,plus2,0,GREY.bmp,Judgeindirect,blacksquare2.gif,pic63.bmp,Mask.bmp,021717,16:06:38,5.0.2.0,59,blackindirect,4,19,3343,plus1,0,b12.bmp,Judgeindirect,blacksquare2.gif,pic72.bmp,Mask.bmp,021717,16:06:38,5.0.2.0,59,neutral,4,20,3608,plus1,0,GREY.bmp,Judgeindirect,blacksquare2.gif,pic58.bmp,Mask.bmp,021717,16:06:38,5.0.2.0,59,blackindirect,4,21,1390,plus1,0,b03.bmp,Judgeindirect,blacksquare2.gif,pic19.bmp,Mask.bmp,021717,16:06:38,5.0.2.0,59,blackindirect,4,22,2110,minus1,0,b07.bmp,Judgeindirect,blacksquare2.gif,pic47.bmp,Mask.bmp,021717,16:06:38,5.0.2.0,59,neutral,4,23,2193,plus2,0,GREY.bmp,Judgeindirect,blacksquare2.gif,pic17.bmp,Mask.bmp,021717,16:06:38,5.0.2.0,59,blackindirect,4,24,2248,plus1,0,b11.bmp,Judgeindirect,blacksquare2.gif,pic34.bmp,Mask.bmp,021717,16:06:38,5.0.2.0,59,blackindirect,4,25,1278,plus1,0,b08.bmp,Judgeindirect,blacksquare2.gif,pic65.bmp,Mask.bmp,021717,16:06:38,5.0.2.0,59,whiteindirect,4,26,1298,minus1,0,w04.bmp,Judgeindirect,blacksquare2.gif,pic2.bmp,Mask.bmp,021717,16:06:38,5.0.2.0,59,blackindirect,4,27,6990,minus1,0,b09.bmp,Judgeindirect,blacksquare2.gif,pic31.bmp,Mask.bmp,021717,16:06:38,5.0.2.0,59,blackindirect,4,28,1131,plus1,0,b02.bmp,Judgeindirect,blacksquare2.gif,pic43.bmp,Mask.bmp,021717,16:06:38,5.0.2.0,59,blackindirect,4,29,1390,plus1,0,b06.bmp,Judgeindirect,blacksquare2.gif,pic40.bmp,Mask.bmp,021717,16:06:38,5.0.2.0,59,neutral,4,30,3005,minus1,0,GREY.bmp,Judgeindirect,blacksquare2.gif,pic73.bmp,Mask.bmp,021717,16:06:38,5.0.2.0,59,neutral,4,31,1812,plus1,0,GREY.bmp,Judgeindirect,blacksquare2.gif,pic66.bmp,Mask.bmp,021717,16:06:38,5.0.2.0,59,neutral,4,32,1731,plus1,0,GREY.bmp,Judgeindirect,blacksquare2.gif,pic29.bmp,Mask.bmp,021717,16:06:38,5.0.2.0,59,neutral,4,33,2517,minus1,0,GREY.bmp,Judgeindirect,blacksquare2.gif,pic30.bmp,Mask.bmp,021717,16:06:38,5.0.2.0,59,whiteindirect,4,34,2216,minus1,0,w03.bmp,Judgeindirect,blacksquare2.gif,pic61.bmp,Mask.bmp,021717,16:06:38,5.0.2.0,59,neutral,4,35,1767,plus1,0,GREY.bmp,Judgeindirect,blacksquare2.gif,pic52.bmp,Mask.bmp,021717,16:06:38,5.0.2.0,59,neutral,4,36,1264,plus1,0,GREY.bmp,Judgeindirect,blacksquare2.gif,pic48.bmp,Mask.bmp,021717,16:06:38,5.0.2.0,59,neutral,4,37,2069,plus1,0,GREY.bmp,Judgeindirect,blacksquare2.gif,pic6.bmp,Mask.bmp,021717,16:06:38,5.0.2.0,59,blackindirect,4,38,2561,minus1,0,b02.bmp,Judgeindirect,blacksquare2.gif,pic39.bmp,Mask.bmp,021717,16:06:38,5.0.2.0,59,blackindirect,4,39,4834,plus1,0,b06.bmp,Judgeindirect,blacksquare2.gif,pic50.bmp,Mask.bmp,021717,16:06:38,5.0.2.0,59,blackindirect,4,40,2382,plus2,0,b03.bmp,Judgeindirect,blacksquare2.gif,pic23.bmp,Mask.bmp,021717,16:06:38,5.0.2.0,59,whiteindirect,4,41,2958,plus1,0,w07.bmp,Judgeindirect,blacksquare2.gif,pic26.bmp,Mask.bmp,021717,16:06:38,5.0.2.0,59,blackindirect,4,42,3918,plus1,0,b08.bmp,Judgeindirect,blacksquare2.gif,pic37.bmp,Mask.bmp,021717,16:06:38,5.0.2.0,59,blackindirect,4,43,3560,plus1,0,b09.bmp,Judgeindirect,blacksquare2.gif,pic71.bmp,Mask.bmp,021717,16:06:38,5.0.2.0,59,whiteindirect,4,44,1896,minus1,0,b11.jpg,Judgeindirect,blacksquare2.gif,pic56.bmp,Mask.bmp,021717,16:06:38,5.0.2.0,59,whiteindirect,4,45,1763,minus1,0,w06.bmp,Judgeindirect,blacksquare2.gif,pic21.bmp,Mask.bmp,021717,16:06:38,5.0.2.0,59,whiteindirect,4,46,1364,minus1,0,w03.bmp,Judgeindirect,blacksquare2.gif,pic70.bmp,Mask.bmp,021717,16:06:38,5.0.2.0,59,neutral,4,47,1462,minus1,0,GREY.bmp,Judgeindirect,blacksquare2.gif,pic28.bmp,Mask.bmp,021717,16:06:38,5.0.2.0,59,blackindirect,4,48,2059,plus2,0,b12.bmp,Judgeindirect,blacksquare2.gif,pic22.bmp,Mask.bmp,021717,16:06:38,5.0.2.0,59,blackindirect,4,49,2032,plus1,0,b04.bmp,Judgeindirect,blacksquare2.gif,pic1.bmp,Mask.bmp,021717,16:06:38,5.0.2.0,59,whiteindirect,4,50,2734,plus1,0,w02.bmp,Judgeindirect,blacksquare2.gif,pic3.bmp,Mask.bmp,021717,16:06:38,5.0.2.0,59,neutral,4,51,6544,plus1,0,GREY.bmp,Judgeindirect,blacksquare2.gif,pic27.bmp,Mask.bmp,021717,16:06:38,5.0.2.0,59,whiteindirect,4,52,2054,plus1,0,b12.jpg,Judgeindirect,blacksquare2.gif,pic74.bmp,Mask.bmp,021717,16:06:38,5.0.2.0,59,whiteindirect,4,53,1355,plus1,0,w05.bmp,Judgeindirect,blacksquare2.gif,pic8.bmp,Mask.bmp,021717,16:06:38,5.0.2.0,59,whiteindirect,4,54,1181,plus1,0,b10.jpg,Judgeindirect,blacksquare2.gif,pic41.bmp,Mask.bmp,021717,16:06:38,5.0.2.0,59,whiteindirect,4,55,1141,minus1,0,w04.bmp,Judgeindirect,blacksquare2.gif,pic69.bmp,Mask.bmp,021717,16:06:38,5.0.2.0,59,blackindirect,4,56,1424,minus1,0,b01.bmp,Judgeindirect,blacksquare2.gif,pic4.bmp,Mask.bmp,021717,16:06:38,5.0.2.0,59,whiteindirect,4,57,1950,plus1,0,w07.bmp,Judgeindirect,blacksquare2.gif,pic16.bmp,Mask.bmp,021717,16:06:38,5.0.2.0,59,blackindirect,4,58,1136,plus1,0,b05.bmp,Judgeindirect,blacksquare2.gif,pic25.bmp,Mask.bmp,021717,16:06:38,5.0.2.0,59,neutral,4,59,1538,plus1,0,GREY.bmp,Judgeindirect,blacksquare2.gif,pic57.bmp,Mask.bmp,021717,16:06:38,5.0.2.0,59,neutral,4,60,2356,minus1,0,GREY.bmp,Judgeindirect,blacksquare2.gif,pic46.bmp,Mask.bmp,021717,16:06:38,5.0.2.0,59,neutral,4,61,1589,plus1,0,GREY.bmp,Judgeindirect,blacksquare2.gif,pic75.bmp,Mask.bmp,021717,16:06:38,5.0.2.0,59,whiteindirect,4,62,2205,minus1,0,w08.bmp,Judgeindirect,blacksquare2.gif,pic62.bmp,Mask.bmp,021717,16:06:38,5.0.2.0,59,blackindirect,4,63,1411,plus1,0,b10.bmp,Judgeindirect,blacksquare2.gif,pic12.bmp,Mask.bmp,021717,16:06:38,5.0.2.0,59,blackindirect,4,64,1131,minus1,0,b07.bmp,Judgeindirect,blacksquare2.gif,pic44.bmp,Mask.bmp,021717,16:06:38,5.0.2.0,59,neutral,4,65,1438,plus1,0,GREY.bmp,Judgeindirect,blacksquare2.gif,pic10.bmp,Mask.bmp,021717,16:06:38,5.0.2.0,59,blackindirect,4,66,1204,plus1,0,b11.bmp,Judgeindirect,blacksquare2.gif,pic38.bmp,Mask.bmp,021717,16:06:38,5.0.2.0,59,whiteindirect,4,67,675,plus1,0,w09.bmp,Judgeindirect,blacksquare2.gif,pic7.bmp,Mask.bmp,021717,16:06:38,5.0.2.0,59,whiteindirect,4,68,3920,minus1,0,w01.bmp,Judgeindirect,blacksquare2.gif,pic11.bmp,Mask.bmp,021717,16:06:38,5.0.2.0,59,neutral,4,69,1281,plus1,0,GREY.bmp,Judgeindirect,blacksquare2.gif,pic36.bmp,Mask.bmp,021717,16:06:38,5.0.2.0,59,neutral,4,70,1574,minus1,0,GREY.bmp,Judgeindirect,blacksquare2.gif,pic67.bmp,Mask.bmp,021717,16:06:38,5.0.2.0,59,neutral,4,71,1271,plus1,0,GREY.bmp,Judgeindirect,blacksquare2.gif,pic20.bmp,Mask.bmp,021717,16:06:38,5.0.2.0,59,neutral,4,72,548,plus1,0,GREY.bmp,Judgeindirect,blacksquare2.gif,pic14.bmp,Mask.bmp,021717,16:06:38,5.0.2.0,59,whitedirect,6,1,2459,plus1,0,w09.bmp,Judgedirect,blacksquare2.gif,pic80.bmp,Mask.bmp,021717,16:06:38,5.0.2.0,59,blackdirect,6,2,1071,plus1,0,b02.bmp,Judgedirect,blacksquare2.gif,pic117.bmp,Mask.bmp,021717,16:06:38,5.0.2.0,59,whitedirect,6,3,1228,minus1,0,b10.jpg,Judgedirect,blacksquare2.gif,pic116.bmp,Mask.bmp,021717,16:06:38,5.0.2.0,59,blackdirect,6,4,1219,plus1,0,b06.bmp,Judgedirect,blacksquare2.gif,pic107.bmp,Mask.bmp,021717,16:06:38,5.0.2.0,59,whitedirect,6,5,1066,plus1,0,w01.bmp,Judgedirect,blacksquare2.gif,pic115.bmp,Mask.bmp,021717,16:06:38,5.0.2.0,59,blackdirect,6,6,472,plus1,0,b11.bmp,Judgedirect,blacksquare2.gif,pic106.bmp,Mask.bmp,021717,16:06:38,5.0.2.0,59,whitedirect,6,7,1149,minus1,0,b12.jpg,Judgedirect,blacksquare2.gif,pic118.bmp,Mask.bmp,021717,16:06:38,5.0.2.0,59,blackdirect,6,8,2567,minus1,0,b04.bmp,Judgedirect,blacksquare2.gif,pic108.bmp,Mask.bmp,021717,16:06:38,5.0.2.0,59,whitedirect,6,9,944,minus1,0,w08.bmp,Judgedirect,blacksquare2.gif,pic109.bmp,Mask.bmp,021717,16:06:38,5.0.2.0,59,blackdirect,6,10,1066,plus1,0,b01.bmp,Judgedirect,blacksquare2.gif,pic110.bmp,Mask.bmp,021717,16:06:38,5.0.2.0,59,whitedirect,6,11,2448,minus1,0,w02.bmp,Judgedirect,blacksquare2.gif,pic104.bmp,Mask.bmp,021717,16:06:38,5.0.2.0,59,blackdirect,6,12,893,plus1,0,b07.bmp,Judgedirect,blacksquare2.gif,pic100.bmp,Mask.bmp,021717,16:06:38,5.0.2.0,59,whitedirect,6,13,1241,minus1,0,w04.bmp,Judgedirect,blacksquare2.gif,pic112.bmp,Mask.bmp,021717,16:06:38,5.0.2.0,59,blackdirect,6,14,960,plus1,0,b12.bmp,Judgedirect,blacksquare2.gif,pic114.bmp,Mask.bmp,021717,16:06:38,5.0.2.0,59,whitedirect,6,15,537,plus1,0,w05.bmp,Judgedirect,blacksquare2.gif,pic101.bmp,Mask.bmp,021717,16:06:38,5.0.2.0,59,blackdirect,6,16,444,plus1,0,b09.bmp,Judgedirect,blacksquare2.gif,pic82.bmp,Mask.bmp,021717,16:06:38,5.0.2.0,59,whitedirect,6,17,1291,plus1,0,w07.bmp,Judgedirect,blacksquare2.gif,pic113.bmp,Mask.bmp,021717,16:06:38,5.0.2.0,59,blackdirect,6,18,751,plus1,0,b03.bmp,Judgedirect,blacksquare2.gif,pic105.bmp,Mask.bmp,021717,16:06:38,5.0.2.0,59,whitedirect,6,19,2201,plus1,0,w06.bmp,Judgedirect,blacksquare2.gif,pic81.bmp,Mask.bmp,021717,16:06:38,5.0.2.0,59,blackdirect,6,20,1416,minus1,0,b05.bmp,Judgedirect,blacksquare2.gif,pic103.bmp,Mask.bmp,021717,16:06:38,5.0.2.0,59,whitedirect,6,21,2015,minus1,0,w03.bmp,Judgedirect,blacksquare2.gif,pic79.bmp,Mask.bmp,021717,16:06:38,5.0.2.0,59,blackdirect,6,22,838,plus1,0,b08.bmp,Judgedirect,blacksquare2.gif,pic78.bmp,Mask.bmp,021717,16:06:38,5.0.2.0,59,whitedirect,6,23,901,minus1,0,b11.jpg,Judgedirect,blacksquare2.gif,pic102.bmp,Mask.bmp,021717,16:06:38,5.0.2.0,59,blackdirect,6,24,1393,minus1,0,b10.bmp,Judgedirect,blacksquare2.gif,pic111.bmp,Mask.bmp,021717,16:06:38,5.0.2.0,59,gender,7,1,6863,2,1,0,demo,0,0,0,021717,16:06:38,5.0.2.0,59,age,7,1,6863,19,1,0,demo,0,0,0,021717,16:06:38,5.0.2.0,59,ethnicity,7,1,6863,Asian-American,1,0,demo,0,0,0,021817,12:07:06,5.0.2.0,60,practice,1,1,8185,57,1,sample.bmp,orient1,blacksquare2.gif,pic76.bmp,Mask.bmp,021817,12:07:06,5.0.2.0,60,whitedirect,4,1,8120,plus1,0,w02.bmp,Judgedirect,blacksquare2.gif,pic108.bmp,Mask.bmp,021817,12:07:06,5.0.2.0,60,blackdirect,4,2,3455,plus1,0,b03.bmp,Judgedirect,blacksquare2.gif,pic100.bmp,Mask.bmp,021817,12:07:06,5.0.2.0,60,whitedirect,4,3,4346,plus1,0,w05.bmp,Judgedirect,blacksquare2.gif,pic82.bmp,Mask.bmp,021817,12:07:06,5.0.2.0,60,blackdirect,4,4,2066,plus1,0,b01.bmp,Judgedirect,blacksquare2.gif,pic115.bmp,Mask.bmp,021817,12:07:06,5.0.2.0,60,whitedirect,4,5,2743,plus1,0,w06.bmp,Judgedirect,blacksquare2.gif,pic81.bmp,Mask.bmp,021817,12:07:06,5.0.2.0,60,blackdirect,4,6,4512,plus1,0,b02.bmp,Judgedirect,blacksquare2.gif,pic103.bmp,Mask.bmp,021817,12:07:06,5.0.2.0,60,whitedirect,4,7,3945,plus2,0,w09.bmp,Judgedirect,blacksquare2.gif,pic116.bmp,Mask.bmp,021817,12:07:06,5.0.2.0,60,blackdirect,4,8,1970,plus1,0,b12.bmp,Judgedirect,blacksquare2.gif,pic102.bmp,Mask.bmp,021817,12:07:06,5.0.2.0,60,whitedirect,4,9,1890,minus1,0,b11.jpg,Judgedirect,blacksquare2.gif,pic112.bmp,Mask.bmp,021817,12:07:06,5.0.2.0,60,blackdirect,4,10,1446,minus1,0,b11.bmp,Judgedirect,blacksquare2.gif,pic78.bmp,Mask.bmp,021817,12:07:06,5.0.2.0,60,whitedirect,4,11,1372,plus1,0,b12.jpg,Judgedirect,blacksquare2.gif,pic114.bmp,Mask.bmp,021817,12:07:06,5.0.2.0,60,blackdirect,4,12,1124,plus1,0,b07.bmp,Judgedirect,blacksquare2.gif,pic118.bmp,Mask.bmp,021817,12:07:06,5.0.2.0,60,whitedirect,4,13,2311,plus1,0,w08.bmp,Judgedirect,blacksquare2.gif,pic79.bmp,Mask.bmp,021817,12:07:06,5.0.2.0,60,blackdirect,4,14,3178,plus1,0,b05.bmp,Judgedirect,blacksquare2.gif,pic105.bmp,Mask.bmp,021817,12:07:06,5.0.2.0,60,whitedirect,4,15,2905,plus1,0,w01.bmp,Judgedirect,blacksquare2.gif,pic111.bmp,Mask.bmp,021817,12:07:06,5.0.2.0,60,blackdirect,4,16,2348,plus1,0,b06.bmp,Judgedirect,blacksquare2.gif,pic107.bmp,Mask.bmp,021817,12:07:06,5.0.2.0,60,whitedirect,4,17,2901,plus1,0,b10.jpg,Judgedirect,blacksquare2.gif,pic101.bmp,Mask.bmp,021817,12:07:06,5.0.2.0,60,blackdirect,4,18,3432,plus1,0,b04.bmp,Judgedirect,blacksquare2.gif,pic80.bmp,Mask.bmp,021817,12:07:06,5.0.2.0,60,whitedirect,4,19,1213,plus1,0,w04.bmp,Judgedirect,blacksquare2.gif,pic117.bmp,Mask.bmp,021817,12:07:06,5.0.2.0,60,blackdirect,4,20,2013,plus1,0,b09.bmp,Judgedirect,blacksquare2.gif,pic106.bmp,Mask.bmp,021817,12:07:06,5.0.2.0,60,whitedirect,4,21,4451,plus1,0,w07.bmp,Judgedirect,blacksquare2.gif,pic109.bmp,Mask.bmp,021817,12:07:06,5.0.2.0,60,blackdirect,4,22,3703,plus1,0,b10.bmp,Judgedirect,blacksquare2.gif,pic104.bmp,Mask.bmp,021817,12:07:06,5.0.2.0,60,whitedirect,4,23,3433,plus1,0,w03.bmp,Judgedirect,blacksquare2.gif,pic110.bmp,Mask.bmp,021817,12:07:06,5.0.2.0,60,blackdirect,4,24,1366,plus1,0,b08.bmp,Judgedirect,blacksquare2.gif,pic113.bmp,Mask.bmp,021817,12:07:06,5.0.2.0,60,blackindirect,6,1,2738,minus1,0,b08.bmp,Judgeindirect,blacksquare2.gif,pic12.bmp,Mask.bmp,021817,12:07:06,5.0.2.0,60,blackindirect,6,2,1851,minus1,0,b05.bmp,Judgeindirect,blacksquare2.gif,pic45.bmp,Mask.bmp,021817,12:07:06,5.0.2.0,60,whiteindirect,6,3,1448,plus1,0,w03.bmp,Judgeindirect,blacksquare2.gif,pic73.bmp,Mask.bmp,021817,12:07:06,5.0.2.0,60,blackindirect,6,4,918,plus1,0,b09.bmp,Judgeindirect,blacksquare2.gif,pic46.bmp,Mask.bmp,021817,12:07:06,5.0.2.0,60,neutral,6,5,2657,plus1,0,GREY.bmp,Judgeindirect,blacksquare2.gif,pic66.bmp,Mask.bmp,021817,12:07:06,5.0.2.0,60,whiteindirect,6,6,1597,plus1,0,w01.bmp,Judgeindirect,blacksquare2.gif,pic68.bmp,Mask.bmp,021817,12:07:06,5.0.2.0,60,neutral,6,7,3533,minus1,0,GREY.bmp,Judgeindirect,blacksquare2.gif,pic65.bmp,Mask.bmp,021817,12:07:06,5.0.2.0,60,whiteindirect,6,8,1311,minus1,0,w07.bmp,Judgeindirect,blacksquare2.gif,pic2.bmp,Mask.bmp,021817,12:07:06,5.0.2.0,60,whiteindirect,6,9,762,minus1,0,b12.jpg,Judgeindirect,blacksquare2.gif,pic3.bmp,Mask.bmp,021817,12:07:06,5.0.2.0,60,blackindirect,6,10,1164,minus1,0,b04.bmp,Judgeindirect,blacksquare2.gif,pic64.bmp,Mask.bmp,021817,12:07:06,5.0.2.0,60,neutral,6,11,2493,minus2,0,GREY.bmp,Judgeindirect,blacksquare2.gif,pic16.bmp,Mask.bmp,021817,12:07:06,5.0.2.0,60,neutral,6,12,1049,minus2,0,GREY.bmp,Judgeindirect,blacksquare2.gif,pic6.bmp,Mask.bmp,021817,12:07:06,5.0.2.0,60,blackindirect,6,13,1751,plus1,0,b07.bmp,Judgeindirect,blacksquare2.gif,pic44.bmp,Mask.bmp,021817,12:07:06,5.0.2.0,60,blackindirect,6,14,1264,plus1,0,b10.bmp,Judgeindirect,blacksquare2.gif,pic18.bmp,Mask.bmp,021817,12:07:06,5.0.2.0,60,whiteindirect,6,15,4989,plus2,0,b11.jpg,Judgeindirect,blacksquare2.gif,pic21.bmp,Mask.bmp,021817,12:07:06,5.0.2.0,60,blackindirect,6,16,2939,minus1,0,b03.bmp,Judgeindirect,blacksquare2.gif,pic34.bmp,Mask.bmp,021817,12:07:06,5.0.2.0,60,whiteindirect,6,17,2564,plus1,0,w06.bmp,Judgeindirect,blacksquare2.gif,pic74.bmp,Mask.bmp,021817,12:07:06,5.0.2.0,60,whiteindirect,6,18,1076,plus1,0,w04.bmp,Judgeindirect,blacksquare2.gif,pic67.bmp,Mask.bmp,021817,12:07:06,5.0.2.0,60,whiteindirect,6,19,2481,minus1,0,b10.jpg,Judgeindirect,blacksquare2.gif,pic51.bmp,Mask.bmp,021817,12:07:06,5.0.2.0,60,neutral,6,20,1229,plus1,0,GREY.bmp,Judgeindirect,blacksquare2.gif,pic38.bmp,Mask.bmp,021817,12:07:06,5.0.2.0,60,blackindirect,6,21,3244,plus1,0,b11.bmp,Judgeindirect,blacksquare2.gif,pic61.bmp,Mask.bmp,021817,12:07:06,5.0.2.0,60,neutral,6,22,1105,plus1,0,GREY.bmp,Judgeindirect,blacksquare2.gif,pic63.bmp,Mask.bmp,021817,12:07:06,5.0.2.0,60,whiteindirect,6,23,2348,plus1,0,w05.bmp,Judgeindirect,blacksquare2.gif,pic9.bmp,Mask.bmp,021817,12:07:06,5.0.2.0,60,whiteindirect,6,24,1886,plus2,0,w09.bmp,Judgeindirect,blacksquare2.gif,pic14.bmp,Mask.bmp,021817,12:07:06,5.0.2.0,60,blackindirect,6,25,1497,plus1,0,b02.bmp,Judgeindirect,blacksquare2.gif,pic69.bmp,Mask.bmp,021817,12:07:06,5.0.2.0,60,blackindirect,6,26,717,plus1,0,b01.bmp,Judgeindirect,blacksquare2.gif,pic30.bmp,Mask.bmp,021817,12:07:06,5.0.2.0,60,blackindirect,6,27,1048,minus1,0,b12.bmp,Judgeindirect,blacksquare2.gif,pic57.bmp,Mask.bmp,021817,12:07:06,5.0.2.0,60,neutral,6,28,1135,plus1,0,GREY.bmp,Judgeindirect,blacksquare2.gif,pic19.bmp,Mask.bmp,021817,12:07:06,5.0.2.0,60,neutral,6,29,1545,plus1,0,GREY.bmp,Judgeindirect,blacksquare2.gif,pic15.bmp,Mask.bmp,021817,12:07:06,5.0.2.0,60,blackindirect,6,30,1203,minus1,0,b06.bmp,Judgeindirect,blacksquare2.gif,pic26.bmp,Mask.bmp,021817,12:07:06,5.0.2.0,60,blackindirect,6,31,2058,plus1,0,b12.bmp,Judgeindirect,blacksquare2.gif,pic8.bmp,Mask.bmp,021817,12:07:06,5.0.2.0,60,neutral,6,32,2599,plus1,0,GREY.bmp,Judgeindirect,blacksquare2.gif,pic11.bmp,Mask.bmp,021817,12:07:06,5.0.2.0,60,whiteindirect,6,33,7390,plus1,0,w08.bmp,Judgeindirect,blacksquare2.gif,pic13.bmp,Mask.bmp,021817,12:07:06,5.0.2.0,60,blackindirect,6,34,666,plus1,0,b10.bmp,Judgeindirect,blacksquare2.gif,pic48.bmp,Mask.bmp,021817,12:07:06,5.0.2.0,60,neutral,6,35,704,plus1,0,GREY.bmp,Judgeindirect,blacksquare2.gif,pic58.bmp,Mask.bmp,021817,12:07:06,5.0.2.0,60,whiteindirect,6,36,516,plus1,0,w02.bmp,Judgeindirect,blacksquare2.gif,pic33.bmp,Mask.bmp,021817,12:07:06,5.0.2.0,60,whiteindirect,6,37,1432,plus2,0,w05.bmp,Judgeindirect,blacksquare2.gif,pic47.bmp,Mask.bmp,021817,12:07:06,5.0.2.0,60,neutral,6,38,831,plus1,0,GREY.bmp,Judgeindirect,blacksquare2.gif,pic25.bmp,Mask.bmp,021817,12:07:06,5.0.2.0,60,whiteindirect,6,39,606,plus1,0,w04.bmp,Judgeindirect,blacksquare2.gif,pic23.bmp,Mask.bmp,021817,12:07:06,5.0.2.0,60,neutral,6,40,678,plus1,0,GREY.bmp,Judgeindirect,blacksquare2.gif,pic59.bmp,Mask.bmp,021817,12:07:06,5.0.2.0,60,whiteindirect,6,41,907,plus1,0,w03.bmp,Judgeindirect,blacksquare2.gif,pic62.bmp,Mask.bmp,021817,12:07:06,5.0.2.0,60,neutral,6,42,663,plus1,0,GREY.bmp,Judgeindirect,blacksquare2.gif,pic20.bmp,Mask.bmp,021817,12:07:06,5.0.2.0,60,neutral,6,43,917,plus1,0,GREY.bmp,Judgeindirect,blacksquare2.gif,pic1.bmp,Mask.bmp,021817,12:07:06,5.0.2.0,60,blackindirect,6,44,2880,plus1,0,b05.bmp,Judgeindirect,blacksquare2.gif,pic54.bmp,Mask.bmp,021817,12:07:06,5.0.2.0,60,blackindirect,6,45,1051,minus1,0,b06.bmp,Judgeindirect,blacksquare2.gif,pic32.bmp,Mask.bmp,021817,12:07:06,5.0.2.0,60,neutral,6,46,1217,minus1,0,GREY.bmp,Judgeindirect,blacksquare2.gif,pic60.bmp,Mask.bmp,021817,12:07:06,5.0.2.0,60,blackindirect,6,47,680,minus1,0,b11.bmp,Judgeindirect,blacksquare2.gif,pic17.bmp,Mask.bmp,021817,12:07:06,5.0.2.0,60,whiteindirect,6,48,717,minus1,0,w06.bmp,Judgeindirect,blacksquare2.gif,pic29.bmp,Mask.bmp,021817,12:07:06,5.0.2.0,60,whiteindirect,6,49,880,minus1,0,b10.jpg,Judgeindirect,blacksquare2.gif,pic41.bmp,Mask.bmp,021817,12:07:06,5.0.2.0,60,whiteindirect,6,50,885,plus1,0,b11.jpg,Judgeindirect,blacksquare2.gif,pic39.bmp,Mask.bmp,021817,12:07:06,5.0.2.0,60,blackindirect,6,51,1146,plus1,0,b01.bmp,Judgeindirect,blacksquare2.gif,pic55.bmp,Mask.bmp,021817,12:07:06,5.0.2.0,60,blackindirect,6,52,820,minus1,0,b02.bmp,Judgeindirect,blacksquare2.gif,pic40.bmp,Mask.bmp,021817,12:07:06,5.0.2.0,60,blackindirect,6,53,1219,minus1,0,b08.bmp,Judgeindirect,blacksquare2.gif,pic24.bmp,Mask.bmp,021817,12:07:06,5.0.2.0,60,blackindirect,6,54,1226,plus1,0,b09.bmp,Judgeindirect,blacksquare2.gif,pic72.bmp,Mask.bmp,021817,12:07:06,5.0.2.0,60,whiteindirect,6,55,1721,minus1,0,w01.bmp,Judgeindirect,blacksquare2.gif,pic50.bmp,Mask.bmp,021817,12:07:06,5.0.2.0,60,whiteindirect,6,56,1307,plus1,0,w07.bmp,Judgeindirect,blacksquare2.gif,pic70.bmp,Mask.bmp,021817,12:07:06,5.0.2.0,60,neutral,6,57,607,plus1,0,GREY.bmp,Judgeindirect,blacksquare2.gif,pic27.bmp,Mask.bmp,021817,12:07:06,5.0.2.0,60,neutral,6,58,535,plus1,0,GREY.bmp,Judgeindirect,blacksquare2.gif,pic52.bmp,Mask.bmp,021817,12:07:06,5.0.2.0,60,neutral,6,59,1065,plus1,0,GREY.bmp,Judgeindirect,blacksquare2.gif,pic7.bmp,Mask.bmp,021817,12:07:06,5.0.2.0,60,neutral,6,60,1279,plus1,0,GREY.bmp,Judgeindirect,blacksquare2.gif,pic4.bmp,Mask.bmp,021817,12:07:06,5.0.2.0,60,neutral,6,61,1308,plus1,0,GREY.bmp,Judgeindirect,blacksquare2.gif,pic53.bmp,Mask.bmp,021817,12:07:06,5.0.2.0,60,neutral,6,62,1631,plus1,0,GREY.bmp,Judgeindirect,blacksquare2.gif,pic31.bmp,Mask.bmp,021817,12:07:06,5.0.2.0,60,whiteindirect,6,63,446,plus1,0,w08.bmp,Judgeindirect,blacksquare2.gif,pic56.bmp,Mask.bmp,021817,12:07:06,5.0.2.0,60,whiteindirect,6,64,556,plus1,0,b12.jpg,Judgeindirect,blacksquare2.gif,pic28.bmp,Mask.bmp,021817,12:07:06,5.0.2.0,60,blackindirect,6,65,702,plus1,0,b04.bmp,Judgeindirect,blacksquare2.gif,pic10.bmp,Mask.bmp,021817,12:07:06,5.0.2.0,60,blackindirect,6,66,1514,minus1,0,b03.bmp,Judgeindirect,blacksquare2.gif,pic42.bmp,Mask.bmp,021817,12:07:06,5.0.2.0,60,whiteindirect,6,67,2557,plus1,0,w02.bmp,Judgeindirect,blacksquare2.gif,pic36.bmp,Mask.bmp,021817,12:07:06,5.0.2.0,60,neutral,6,68,630,plus1,0,GREY.bmp,Judgeindirect,blacksquare2.gif,pic71.bmp,Mask.bmp,021817,12:07:06,5.0.2.0,60,neutral,6,69,1821,plus2,0,GREY.bmp,Judgeindirect,blacksquare2.gif,pic22.bmp,Mask.bmp,021817,12:07:06,5.0.2.0,60,neutral,6,70,1276,plus1,0,GREY.bmp,Judgeindirect,blacksquare2.gif,pic5.bmp,Mask.bmp,021817,12:07:06,5.0.2.0,60,whiteindirect,6,71,1592,plus2,0,w09.bmp,Judgeindirect,blacksquare2.gif,pic43.bmp,Mask.bmp,021817,12:07:06,5.0.2.0,60,blackindirect,6,72,1248,minus1,0,b07.bmp,Judgeindirect,blacksquare2.gif,pic37.bmp,Mask.bmp,021817,12:07:06,5.0.2.0,60,gender,7,1,16306,1,1,0,demo,0,0,0,021817,12:07:06,5.0.2.0,60,age,7,1,16306,18,1,0,demo,0,0,0,021817,12:07:06,5.0.2.0,60,ethnicity,7,1,16306,"White, non-Hispanic or Latino",1,0,demo,0,0,0,021817,12:09:41,5.0.2.0,61,practice,1,1,3710,57,1,sample.bmp,orient1,blacksquare2.gif,pic76.bmp,Mask.bmp,021817,12:09:41,5.0.2.0,61,blackdirect,4,1,4694,plus1,0,b09.bmp,Judgedirect,blacksquare2.gif,pic82.bmp,Mask.bmp,021817,12:09:41,5.0.2.0,61,whitedirect,4,2,2608,plus1,0,w02.bmp,Judgedirect,blacksquare2.gif,pic105.bmp,Mask.bmp,021817,12:09:41,5.0.2.0,61,blackdirect,4,3,767,plus1,0,b01.bmp,Judgedirect,blacksquare2.gif,pic81.bmp,Mask.bmp,021817,12:09:41,5.0.2.0,61,whitedirect,4,4,1648,plus2,0,b10.jpg,Judgedirect,blacksquare2.gif,pic113.bmp,Mask.bmp,021817,12:09:41,5.0.2.0,61,blackdirect,4,5,1798,plus1,0,b05.bmp,Judgedirect,blacksquare2.gif,pic102.bmp,Mask.bmp,021817,12:09:41,5.0.2.0,61,whitedirect,4,6,1573,plus2,0,w08.bmp,Judgedirect,blacksquare2.gif,pic79.bmp,Mask.bmp,021817,12:09:41,5.0.2.0,61,blackdirect,4,7,918,plus1,0,b03.bmp,Judgedirect,blacksquare2.gif,pic103.bmp,Mask.bmp,021817,12:09:41,5.0.2.0,61,whitedirect,4,8,2777,minus1,0,w03.bmp,Judgedirect,blacksquare2.gif,pic108.bmp,Mask.bmp,021817,12:09:41,5.0.2.0,61,blackdirect,4,9,1824,plus1,0,b08.bmp,Judgedirect,blacksquare2.gif,pic109.bmp,Mask.bmp,021817,12:09:41,5.0.2.0,61,whitedirect,4,10,1823,minus1,0,w05.bmp,Judgedirect,blacksquare2.gif,pic100.bmp,Mask.bmp,021817,12:09:41,5.0.2.0,61,blackdirect,4,11,1293,plus1,0,b12.bmp,Judgedirect,blacksquare2.gif,pic107.bmp,Mask.bmp,021817,12:09:41,5.0.2.0,61,whitedirect,4,12,913,minus1,0,w09.bmp,Judgedirect,blacksquare2.gif,pic78.bmp,Mask.bmp,021817,12:09:41,5.0.2.0,61,blackdirect,4,13,1325,plus1,0,b07.bmp,Judgedirect,blacksquare2.gif,pic114.bmp,Mask.bmp,021817,12:09:41,5.0.2.0,61,whitedirect,4,14,2944,plus1,0,w04.bmp,Judgedirect,blacksquare2.gif,pic111.bmp,Mask.bmp,021817,12:09:41,5.0.2.0,61,blackdirect,4,15,1921,minus1,0,b11.bmp,Judgedirect,blacksquare2.gif,pic112.bmp,Mask.bmp,021817,12:09:41,5.0.2.0,61,whitedirect,4,16,2075,plus1,0,w07.bmp,Judgedirect,blacksquare2.gif,pic115.bmp,Mask.bmp,021817,12:09:41,5.0.2.0,61,blackdirect,4,17,1327,minus1,0,b10.bmp,Judgedirect,blacksquare2.gif,pic118.bmp,Mask.bmp,021817,12:09:41,5.0.2.0,61,whitedirect,4,18,2842,minus2,0,b11.jpg,Judgedirect,blacksquare2.gif,pic101.bmp,Mask.bmp,021817,12:09:41,5.0.2.0,61,blackdirect,4,19,1951,minus1,0,b02.bmp,Judgedirect,blacksquare2.gif,pic116.bmp,Mask.bmp,021817,12:09:41,5.0.2.0,61,whitedirect,4,20,2760,plus1,0,b12.jpg,Judgedirect,blacksquare2.gif,pic110.bmp,Mask.bmp,021817,12:09:41,5.0.2.0,61,blackdirect,4,21,2280,minus1,0,b04.bmp,Judgedirect,blacksquare2.gif,pic106.bmp,Mask.bmp,021817,12:09:41,5.0.2.0,61,whitedirect,4,22,1492,minus1,0,w01.bmp,Judgedirect,blacksquare2.gif,pic117.bmp,Mask.bmp,021817,12:09:41,5.0.2.0,61,blackdirect,4,23,1696,minus1,0,b06.bmp,Judgedirect,blacksquare2.gif,pic80.bmp,Mask.bmp,021817,12:09:41,5.0.2.0,61,whitedirect,4,24,2084,plus1,0,w06.bmp,Judgedirect,blacksquare2.gif,pic104.bmp,Mask.bmp,021817,12:09:41,5.0.2.0,61,blackindirect,6,1,2592,plus1,0,b12.bmp,Judgeindirect,blacksquare2.gif,pic7.bmp,Mask.bmp,021817,12:09:41,5.0.2.0,61,blackindirect,6,2,1680,plus1,0,b06.bmp,Judgeindirect,blacksquare2.gif,pic6.bmp,Mask.bmp,021817,12:09:41,5.0.2.0,61,whiteindirect,6,3,1940,plus2,0,w05.bmp,Judgeindirect,blacksquare2.gif,pic46.bmp,Mask.bmp,021817,12:09:41,5.0.2.0,61,whiteindirect,6,4,2030,plus1,0,w04.bmp,Judgeindirect,blacksquare2.gif,pic74.bmp,Mask.bmp,021817,12:09:41,5.0.2.0,61,neutral,6,5,1036,minus1,0,GREY.bmp,Judgeindirect,blacksquare2.gif,pic62.bmp,Mask.bmp,021817,12:09:41,5.0.2.0,61,whiteindirect,6,6,1218,plus1,0,b12.jpg,Judgeindirect,blacksquare2.gif,pic9.bmp,Mask.bmp,021817,12:09:41,5.0.2.0,61,whiteindirect,6,7,2297,plus2,0,w06.bmp,Judgeindirect,blacksquare2.gif,pic27.bmp,Mask.bmp,021817,12:09:41,5.0.2.0,61,blackindirect,6,8,1724,minus1,0,b08.bmp,Judgeindirect,blacksquare2.gif,pic37.bmp,Mask.bmp,021817,12:09:41,5.0.2.0,61,blackindirect,6,9,1647,plus1,0,b03.bmp,Judgeindirect,blacksquare2.gif,pic52.bmp,Mask.bmp,021817,12:09:41,5.0.2.0,61,neutral,6,10,2500,plus1,0,GREY.bmp,Judgeindirect,blacksquare2.gif,pic4.bmp,Mask.bmp,021817,12:09:41,5.0.2.0,61,blackindirect,6,11,1712,minus1,0,b09.bmp,Judgeindirect,blacksquare2.gif,pic16.bmp,Mask.bmp,021817,12:09:41,5.0.2.0,61,neutral,6,12,1635,plus1,0,GREY.bmp,Judgeindirect,blacksquare2.gif,pic66.bmp,Mask.bmp,021817,12:09:41,5.0.2.0,61,blackindirect,6,13,1393,minus1,0,b02.bmp,Judgeindirect,blacksquare2.gif,pic28.bmp,Mask.bmp,021817,12:09:41,5.0.2.0,61,blackindirect,6,14,1649,plus1,0,b05.bmp,Judgeindirect,blacksquare2.gif,pic24.bmp,Mask.bmp,021817,12:09:41,5.0.2.0,61,whiteindirect,6,15,1919,plus1,0,w02.bmp,Judgeindirect,blacksquare2.gif,pic18.bmp,Mask.bmp,021817,12:09:41,5.0.2.0,61,blackindirect,6,16,2409,plus1,0,b10.bmp,Judgeindirect,blacksquare2.gif,pic10.bmp,Mask.bmp,021817,12:09:41,5.0.2.0,61,neutral,6,17,1072,minus1,0,GREY.bmp,Judgeindirect,blacksquare2.gif,pic50.bmp,Mask.bmp,021817,12:09:41,5.0.2.0,61,blackindirect,6,18,1476,plus1,0,b04.bmp,Judgeindirect,blacksquare2.gif,pic25.bmp,Mask.bmp,021817,12:09:41,5.0.2.0,61,blackindirect,6,19,2393,plus1,0,b11.bmp,Judgeindirect,blacksquare2.gif,pic36.bmp,Mask.bmp,021817,12:09:41,5.0.2.0,61,blackindirect,6,20,1632,minus1,0,b07.bmp,Judgeindirect,blacksquare2.gif,pic21.bmp,Mask.bmp,021817,12:09:41,5.0.2.0,61,whiteindirect,6,21,975,plus1,0,b10.jpg,Judgeindirect,blacksquare2.gif,pic2.bmp,Mask.bmp,021817,12:09:41,5.0.2.0,61,blackindirect,6,22,1704,minus1,0,b01.bmp,Judgeindirect,blacksquare2.gif,pic41.bmp,Mask.bmp,021817,12:09:41,5.0.2.0,61,blackindirect,6,23,1827,plus2,0,b04.bmp,Judgeindirect,blacksquare2.gif,pic55.bmp,Mask.bmp,021817,12:09:41,5.0.2.0,61,whiteindirect,6,24,793,plus1,0,w08.bmp,Judgeindirect,blacksquare2.gif,pic63.bmp,Mask.bmp,021817,12:09:41,5.0.2.0,61,blackindirect,6,25,2042,minus1,0,b12.bmp,Judgeindirect,blacksquare2.gif,pic70.bmp,Mask.bmp,021817,12:09:41,5.0.2.0,61,whiteindirect,6,26,1479,plus1,0,b11.jpg,Judgeindirect,blacksquare2.gif,pic61.bmp,Mask.bmp,021817,12:09:41,5.0.2.0,61,blackindirect,6,27,1636,plus2,0,b08.bmp,Judgeindirect,blacksquare2.gif,pic75.bmp,Mask.bmp,021817,12:09:41,5.0.2.0,61,whiteindirect,6,28,778,plus1,0,w09.bmp,Judgeindirect,blacksquare2.gif,pic56.bmp,Mask.bmp,021817,12:09:41,5.0.2.0,61,neutral,6,29,2243,minus2,0,GREY.bmp,Judgeindirect,blacksquare2.gif,pic68.bmp,Mask.bmp,021817,12:09:41,5.0.2.0,61,neutral,6,30,1144,plus1,0,GREY.bmp,Judgeindirect,blacksquare2.gif,pic44.bmp,Mask.bmp,021817,12:09:41,5.0.2.0,61,whiteindirect,6,31,1187,plus1,0,w03.bmp,Judgeindirect,blacksquare2.gif,pic29.bmp,Mask.bmp,021817,12:09:41,5.0.2.0,61,whiteindirect,6,32,1059,minus1,0,w01.bmp,Judgeindirect,blacksquare2.gif,pic48.bmp,Mask.bmp,021817,12:09:41,5.0.2.0,61,blackindirect,6,33,1256,plus1,0,b07.bmp,Judgeindirect,blacksquare2.gif,pic11.bmp,Mask.bmp,021817,12:09:41,5.0.2.0,61,whiteindirect,6,34,966,plus1,0,w07.bmp,Judgeindirect,blacksquare2.gif,pic12.bmp,Mask.bmp,021817,12:09:41,5.0.2.0,61,neutral,6,35,999,minus1,0,GREY.bmp,Judgeindirect,blacksquare2.gif,pic15.bmp,Mask.bmp,021817,12:09:41,5.0.2.0,61,whiteindirect,6,36,704,plus1,0,w03.bmp,Judgeindirect,blacksquare2.gif,pic5.bmp,Mask.bmp,021817,12:09:41,5.0.2.0,61,neutral,6,37,2020,plus1,0,GREY.bmp,Judgeindirect,blacksquare2.gif,pic1.bmp,Mask.bmp,021817,12:09:41,5.0.2.0,61,neutral,6,38,2554,plus1,0,GREY.bmp,Judgeindirect,blacksquare2.gif,pic59.bmp,Mask.bmp,021817,12:09:41,5.0.2.0,61,neutral,6,39,1922,plus2,0,GREY.bmp,Judgeindirect,blacksquare2.gif,pic58.bmp,Mask.bmp,021817,12:09:41,5.0.2.0,61,neutral,6,40,933,plus1,0,GREY.bmp,Judgeindirect,blacksquare2.gif,pic43.bmp,Mask.bmp,021817,12:09:41,5.0.2.0,61,whiteindirect,6,41,1320,minus1,0,w01.bmp,Judgeindirect,blacksquare2.gif,pic54.bmp,Mask.bmp,021817,12:09:41,5.0.2.0,61,blackindirect,6,42,850,plus1,0,b05.bmp,Judgeindirect,blacksquare2.gif,pic51.bmp,Mask.bmp,021817,12:09:41,5.0.2.0,61,whiteindirect,6,43,1000,plus1,0,w06.bmp,Judgeindirect,blacksquare2.gif,pic3.bmp,Mask.bmp,021817,12:09:41,5.0.2.0,61,whiteindirect,6,44,1760,plus1,0,w09.bmp,Judgeindirect,blacksquare2.gif,pic19.bmp,Mask.bmp,021817,12:09:41,5.0.2.0,61,neutral,6,45,1377,minus2,0,GREY.bmp,Judgeindirect,blacksquare2.gif,pic22.bmp,Mask.bmp,0