date,time,build,subject,trialcode,blocknum,trialnum,latency,response,correct,stimulus1,blockcode,stimulusitem2,stimulusitem3,stimulusitem4,stimulusitem5120116,10:09:39,4.0.5.0,23,practice,1,1,2983,57,1,sample.bmp,orient1,blacksquare2.gif,pic76.bmp,Mask.bmp,0120116,10:09:39,4.0.5.0,23,neutral,4,1,7797,minus1,0,GREY.bmp,Judgeindirect,blacksquare2.gif,pic28.bmp,Mask.bmp,0120116,10:09:39,4.0.5.0,23,whiteindirect,4,2,5342,minus1,0,w09.bmp,Judgeindirect,blacksquare2.gif,pic62.bmp,Mask.bmp,0120116,10:09:39,4.0.5.0,23,neutral,4,3,3088,plus1,0,GREY.bmp,Judgeindirect,blacksquare2.gif,pic42.bmp,Mask.bmp,0120116,10:09:39,4.0.5.0,23,neutral,4,4,2027,plus1,0,GREY.bmp,Judgeindirect,blacksquare2.gif,pic69.bmp,Mask.bmp,0120116,10:09:39,4.0.5.0,23,whiteindirect,4,5,2515,minus2,0,w07.bmp,Judgeindirect,blacksquare2.gif,pic32.bmp,Mask.bmp,0120116,10:09:39,4.0.5.0,23,blackindirect,4,6,2002,minus1,0,b07.bmp,Judgeindirect,blacksquare2.gif,pic45.bmp,Mask.bmp,0120116,10:09:39,4.0.5.0,23,whiteindirect,4,7,3563,minus1,0,w06.bmp,Judgeindirect,blacksquare2.gif,pic23.bmp,Mask.bmp,0120116,10:09:39,4.0.5.0,23,blackindirect,4,8,3133,minus2,0,b06.bmp,Judgeindirect,blacksquare2.gif,pic13.bmp,Mask.bmp,0120116,10:09:39,4.0.5.0,23,whiteindirect,4,9,3646,minus1,0,w05.bmp,Judgeindirect,blacksquare2.gif,pic58.bmp,Mask.bmp,0120116,10:09:39,4.0.5.0,23,whiteindirect,4,10,3844,minus1,0,w08.bmp,Judgeindirect,blacksquare2.gif,pic43.bmp,Mask.bmp,0120116,10:09:39,4.0.5.0,23,neutral,4,11,2804,minus1,0,GREY.bmp,Judgeindirect,blacksquare2.gif,pic19.bmp,Mask.bmp,0120116,10:09:39,4.0.5.0,23,neutral,4,12,2050,minus1,0,GREY.bmp,Judgeindirect,blacksquare2.gif,pic66.bmp,Mask.bmp,0120116,10:09:39,4.0.5.0,23,blackindirect,4,13,1769,minus2,0,b10.bmp,Judgeindirect,blacksquare2.gif,pic67.bmp,Mask.bmp,0120116,10:09:39,4.0.5.0,23,blackindirect,4,14,1266,minus2,0,b03.bmp,Judgeindirect,blacksquare2.gif,pic37.bmp,Mask.bmp,0120116,10:09:39,4.0.5.0,23,whiteindirect,4,15,1229,minus1,0,w03.bmp,Judgeindirect,blacksquare2.gif,pic24.bmp,Mask.bmp,0120116,10:09:39,4.0.5.0,23,neutral,4,16,1268,plus1,0,GREY.bmp,Judgeindirect,blacksquare2.gif,pic46.bmp,Mask.bmp,0120116,10:09:39,4.0.5.0,23,neutral,4,17,1752,plus1,0,GREY.bmp,Judgeindirect,blacksquare2.gif,pic20.bmp,Mask.bmp,0120116,10:09:39,4.0.5.0,23,neutral,4,18,1612,plus1,0,GREY.bmp,Judgeindirect,blacksquare2.gif,pic1.bmp,Mask.bmp,0120116,10:09:39,4.0.5.0,23,whiteindirect,4,19,2923,minus1,0,w04.bmp,Judgeindirect,blacksquare2.gif,pic3.bmp,Mask.bmp,0120116,10:09:39,4.0.5.0,23,blackindirect,4,20,2892,plus1,0,b09.bmp,Judgeindirect,blacksquare2.gif,pic8.bmp,Mask.bmp,0120116,10:09:39,4.0.5.0,23,blackindirect,4,21,1878,minus1,0,b04.bmp,Judgeindirect,blacksquare2.gif,pic6.bmp,Mask.bmp,0120116,10:09:39,4.0.5.0,23,blackindirect,4,22,1740,minus1,0,b11.bmp,Judgeindirect,blacksquare2.gif,pic41.bmp,Mask.bmp,0120116,10:09:39,4.0.5.0,23,blackindirect,4,23,1215,minus1,0,b02.bmp,Judgeindirect,blacksquare2.gif,pic38.bmp,Mask.bmp,0120116,10:09:39,4.0.5.0,23,neutral,4,24,1878,plus1,0,GREY.bmp,Judgeindirect,blacksquare2.gif,pic44.bmp,Mask.bmp,0120116,10:09:39,4.0.5.0,23,whiteindirect,4,25,2643,plus1,0,b11.jpg,Judgeindirect,blacksquare2.gif,pic22.bmp,Mask.bmp,0120116,10:09:39,4.0.5.0,23,whiteindirect,4,26,2085,plus1,0,w02.bmp,Judgeindirect,blacksquare2.gif,pic25.bmp,Mask.bmp,0120116,10:09:39,4.0.5.0,23,blackindirect,4,27,2227,minus1,0,b05.bmp,Judgeindirect,blacksquare2.gif,pic5.bmp,Mask.bmp,0120116,10:09:39,4.0.5.0,23,blackindirect,4,28,2565,minus1,0,b01.bmp,Judgeindirect,blacksquare2.gif,pic34.bmp,Mask.bmp,0120116,10:09:39,4.0.5.0,23,whiteindirect,4,29,2787,minus1,0,b10.jpg,Judgeindirect,blacksquare2.gif,pic7.bmp,Mask.bmp,0120116,10:09:39,4.0.5.0,23,neutral,4,30,1329,plus1,0,GREY.bmp,Judgeindirect,blacksquare2.gif,pic4.bmp,Mask.bmp,0120116,10:09:39,4.0.5.0,23,blackindirect,4,31,2267,minus1,0,b12.bmp,Judgeindirect,blacksquare2.gif,pic50.bmp,Mask.bmp,0120116,10:09:39,4.0.5.0,23,blackindirect,4,32,1595,minus1,0,b08.bmp,Judgeindirect,blacksquare2.gif,pic57.bmp,Mask.bmp,0120116,10:09:39,4.0.5.0,23,neutral,4,33,1443,plus1,0,GREY.bmp,Judgeindirect,blacksquare2.gif,pic70.bmp,Mask.bmp,0120116,10:09:39,4.0.5.0,23,blackindirect,4,34,4354,plus1,0,b02.bmp,Judgeindirect,blacksquare2.gif,pic33.bmp,Mask.bmp,0120116,10:09:39,4.0.5.0,23,neutral,4,35,2024,plus1,0,GREY.bmp,Judgeindirect,blacksquare2.gif,pic72.bmp,Mask.bmp,0120116,10:09:39,4.0.5.0,23,blackindirect,4,36,1154,minus1,0,b09.bmp,Judgeindirect,blacksquare2.gif,pic60.bmp,Mask.bmp,0120116,10:09:39,4.0.5.0,23,whiteindirect,4,37,355,minus1,0,b12.jpg,Judgeindirect,blacksquare2.gif,pic27.bmp,Mask.bmp,0120116,10:09:39,4.0.5.0,23,whiteindirect,4,38,952,plus1,0,w01.bmp,Judgeindirect,blacksquare2.gif,pic53.bmp,Mask.bmp,0120116,10:09:39,4.0.5.0,23,blackindirect,4,39,856,minus1,0,b06.bmp,Judgeindirect,blacksquare2.gif,pic64.bmp,Mask.bmp,0120116,10:09:39,4.0.5.0,23,blackindirect,4,40,180,minus1,0,b01.bmp,Judgeindirect,blacksquare2.gif,pic39.bmp,Mask.bmp,0120116,10:09:39,4.0.5.0,23,blackindirect,4,41,2376,plus1,0,b04.bmp,Judgeindirect,blacksquare2.gif,pic54.bmp,Mask.bmp,0120116,10:09:39,4.0.5.0,23,neutral,4,42,789,plus1,0,GREY.bmp,Judgeindirect,blacksquare2.gif,pic12.bmp,Mask.bmp,0120116,10:09:39,4.0.5.0,23,blackindirect,4,43,1171,minus1,0,b05.bmp,Judgeindirect,blacksquare2.gif,pic26.bmp,Mask.bmp,0120116,10:09:39,4.0.5.0,23,whiteindirect,4,44,1570,minus1,0,w08.bmp,Judgeindirect,blacksquare2.gif,pic75.bmp,Mask.bmp,0120116,10:09:39,4.0.5.0,23,neutral,4,45,1170,plus1,0,GREY.bmp,Judgeindirect,blacksquare2.gif,pic18.bmp,Mask.bmp,0120116,10:09:39,4.0.5.0,23,neutral,4,46,1561,minus1,0,GREY.bmp,Judgeindirect,blacksquare2.gif,pic51.bmp,Mask.bmp,0120116,10:09:39,4.0.5.0,23,blackindirect,4,47,1092,minus1,0,b07.bmp,Judgeindirect,blacksquare2.gif,pic14.bmp,Mask.bmp,0120116,10:09:39,4.0.5.0,23,blackindirect,4,48,519,minus1,0,b03.bmp,Judgeindirect,blacksquare2.gif,pic47.bmp,Mask.bmp,0120116,10:09:39,4.0.5.0,23,neutral,4,49,3495,plus1,0,GREY.bmp,Judgeindirect,blacksquare2.gif,pic40.bmp,Mask.bmp,0120116,10:09:39,4.0.5.0,23,neutral,4,50,2019,minus1,0,GREY.bmp,Judgeindirect,blacksquare2.gif,pic31.bmp,Mask.bmp,0120116,10:09:39,4.0.5.0,23,whiteindirect,4,51,2038,minus1,0,w03.bmp,Judgeindirect,blacksquare2.gif,pic48.bmp,Mask.bmp,0120116,10:09:39,4.0.5.0,23,whiteindirect,4,52,1135,minus1,0,b12.jpg,Judgeindirect,blacksquare2.gif,pic10.bmp,Mask.bmp,0120116,10:09:39,4.0.5.0,23,whiteindirect,4,53,1073,plus1,0,w01.bmp,Judgeindirect,blacksquare2.gif,pic9.bmp,Mask.bmp,0120116,10:09:39,4.0.5.0,23,whiteindirect,4,54,501,plus1,0,w07.bmp,Judgeindirect,blacksquare2.gif,pic36.bmp,Mask.bmp,0120116,10:09:39,4.0.5.0,23,whiteindirect,4,55,542,plus1,0,w06.bmp,Judgeindirect,blacksquare2.gif,pic74.bmp,Mask.bmp,0120116,10:09:39,4.0.5.0,23,neutral,4,56,606,plus1,0,GREY.bmp,Judgeindirect,blacksquare2.gif,pic2.bmp,Mask.bmp,0120116,10:09:39,4.0.5.0,23,whiteindirect,4,57,1187,minus2,0,w09.bmp,Judgeindirect,blacksquare2.gif,pic56.bmp,Mask.bmp,0120116,10:09:39,4.0.5.0,23,whiteindirect,4,58,532,minus2,0,w02.bmp,Judgeindirect,blacksquare2.gif,pic73.bmp,Mask.bmp,0120116,10:09:39,4.0.5.0,23,blackindirect,4,59,1349,minus1,0,b12.bmp,Judgeindirect,blacksquare2.gif,pic17.bmp,Mask.bmp,0120116,10:09:39,4.0.5.0,23,blackindirect,4,60,1768,minus1,0,b08.bmp,Judgeindirect,blacksquare2.gif,pic15.bmp,Mask.bmp,0120116,10:09:39,4.0.5.0,23,whiteindirect,4,61,1532,minus2,0,w04.bmp,Judgeindirect,blacksquare2.gif,pic11.bmp,Mask.bmp,0120116,10:09:39,4.0.5.0,23,neutral,4,62,2504,plus1,0,GREY.bmp,Judgeindirect,blacksquare2.gif,pic55.bmp,Mask.bmp,0120116,10:09:39,4.0.5.0,23,neutral,4,63,978,plus1,0,GREY.bmp,Judgeindirect,blacksquare2.gif,pic63.bmp,Mask.bmp,0120116,10:09:39,4.0.5.0,23,whiteindirect,4,64,1275,minus1,0,w05.bmp,Judgeindirect,blacksquare2.gif,pic52.bmp,Mask.bmp,0120116,10:09:39,4.0.5.0,23,blackindirect,4,65,833,minus1,0,b10.bmp,Judgeindirect,blacksquare2.gif,pic21.bmp,Mask.bmp,0120116,10:09:39,4.0.5.0,23,neutral,4,66,1118,plus1,0,GREY.bmp,Judgeindirect,blacksquare2.gif,pic49.bmp,Mask.bmp,0120116,10:09:39,4.0.5.0,23,whiteindirect,4,67,1482,minus1,0,b11.jpg,Judgeindirect,blacksquare2.gif,pic30.bmp,Mask.bmp,0120116,10:09:39,4.0.5.0,23,blackindirect,4,68,704,minus1,0,b11.bmp,Judgeindirect,blacksquare2.gif,pic59.bmp,Mask.bmp,0120116,10:09:39,4.0.5.0,23,neutral,4,69,2042,plus1,0,GREY.bmp,Judgeindirect,blacksquare2.gif,pic68.bmp,Mask.bmp,0120116,10:09:39,4.0.5.0,23,whiteindirect,4,70,1740,minus1,0,b10.jpg,Judgeindirect,blacksquare2.gif,pic71.bmp,Mask.bmp,0120116,10:09:39,4.0.5.0,23,neutral,4,71,649,minus1,0,GREY.bmp,Judgeindirect,blacksquare2.gif,pic29.bmp,Mask.bmp,0120116,10:09:39,4.0.5.0,23,neutral,4,72,1222,minus1,0,GREY.bmp,Judgeindirect,blacksquare2.gif,pic16.bmp,Mask.bmp,0120116,10:09:39,4.0.5.0,23,blackdirect,6,1,2140,minus1,0,b11.bmp,Judgedirect,blacksquare2.gif,pic110.bmp,Mask.bmp,0120116,10:09:39,4.0.5.0,23,whitedirect,6,2,668,minus1,0,w07.bmp,Judgedirect,blacksquare2.gif,pic82.bmp,Mask.bmp,0120116,10:09:39,4.0.5.0,23,blackdirect,6,3,287,minus1,0,b10.bmp,Judgedirect,blacksquare2.gif,pic115.bmp,Mask.bmp,0120116,10:09:39,4.0.5.0,23,whitedirect,6,4,608,minus1,0,w01.bmp,Judgedirect,blacksquare2.gif,pic100.bmp,Mask.bmp,0120116,10:09:39,4.0.5.0,23,blackdirect,6,5,1486,plus1,0,b05.bmp,Judgedirect,blacksquare2.gif,pic104.bmp,Mask.bmp,0120116,10:09:39,4.0.5.0,23,whitedirect,6,6,804,minus1,0,w09.bmp,Judgedirect,blacksquare2.gif,pic113.bmp,Mask.bmp,0120116,10:09:39,4.0.5.0,23,blackdirect,6,7,1475,minus1,0,b03.bmp,Judgedirect,blacksquare2.gif,pic114.bmp,Mask.bmp,0120116,10:09:39,4.0.5.0,23,whitedirect,6,8,1258,minus2,0,w02.bmp,Judgedirect,blacksquare2.gif,pic103.bmp,Mask.bmp,0120116,10:09:39,4.0.5.0,23,blackdirect,6,9,609,minus2,0,b01.bmp,Judgedirect,blacksquare2.gif,pic116.bmp,Mask.bmp,0120116,10:09:39,4.0.5.0,23,whitedirect,6,10,1598,minus1,0,b12.jpg,Judgedirect,blacksquare2.gif,pic102.bmp,Mask.bmp,0120116,10:09:39,4.0.5.0,23,blackdirect,6,11,1329,minus2,0,b07.bmp,Judgedirect,blacksquare2.gif,pic78.bmp,Mask.bmp,0120116,10:09:39,4.0.5.0,23,whitedirect,6,12,836,minus1,0,w04.bmp,Judgedirect,blacksquare2.gif,pic111.bmp,Mask.bmp,0120116,10:09:39,4.0.5.0,23,blackdirect,6,13,538,minus1,0,b06.bmp,Judgedirect,blacksquare2.gif,pic105.bmp,Mask.bmp,0120116,10:09:39,4.0.5.0,23,whitedirect,6,14,1250,minus2,0,w08.bmp,Judgedirect,blacksquare2.gif,pic80.bmp,Mask.bmp,0120116,10:09:39,4.0.5.0,23,blackdirect,6,15,849,minus1,0,b12.bmp,Judgedirect,blacksquare2.gif,pic109.bmp,Mask.bmp,0120116,10:09:39,4.0.5.0,23,whitedirect,6,16,1926,minus1,0,b10.jpg,Judgedirect,blacksquare2.gif,pic81.bmp,Mask.bmp,0120116,10:09:39,4.0.5.0,23,blackdirect,6,17,396,minus1,0,b02.bmp,Judgedirect,blacksquare2.gif,pic117.bmp,Mask.bmp,0120116,10:09:39,4.0.5.0,23,whitedirect,6,18,706,minus1,0,w03.bmp,Judgedirect,blacksquare2.gif,pic107.bmp,Mask.bmp,0120116,10:09:39,4.0.5.0,23,blackdirect,6,19,2172,minus1,0,b09.bmp,Judgedirect,blacksquare2.gif,pic108.bmp,Mask.bmp,0120116,10:09:39,4.0.5.0,23,whitedirect,6,20,1562,minus1,0,b11.jpg,Judgedirect,blacksquare2.gif,pic106.bmp,Mask.bmp,0120116,10:09:39,4.0.5.0,23,blackdirect,6,21,661,minus1,0,b04.bmp,Judgedirect,blacksquare2.gif,pic79.bmp,Mask.bmp,0120116,10:09:39,4.0.5.0,23,whitedirect,6,22,1153,minus1,0,w05.bmp,Judgedirect,blacksquare2.gif,pic118.bmp,Mask.bmp,0120116,10:09:39,4.0.5.0,23,blackdirect,6,23,1580,minus2,0,b08.bmp,Judgedirect,blacksquare2.gif,pic112.bmp,Mask.bmp,0120116,10:09:39,4.0.5.0,23,whitedirect,6,24,3654,minus2,0,w06.bmp,Judgedirect,blacksquare2.gif,pic101.bmp,Mask.bmp,0120116,10:09:39,4.0.5.0,23,sesso,7,1,19545,2,1,0,demo,0,0,0,0120116,10:09:39,4.0.5.0,23,anni,7,1,19545,21,1,0,demo,0,0,0,0120116,10:09:39,4.0.5.0,23,etnia,7,1,19545,Caucasico,1,0,demo,0,0,0,0120116,10:16:31,4.0.5.0,24,practice,1,1,8031,57,1,sample.bmp,orient1,blacksquare2.gif,pic76.bmp,Mask.bmp,0120116,10:16:31,4.0.5.0,24,blackdirect,4,1,3181,plus1,0,b08.bmp,Judgedirect,blacksquare2.gif,pic81.bmp,Mask.bmp,0120116,10:16:31,4.0.5.0,24,whitedirect,4,2,5118,plus1,0,w04.bmp,Judgedirect,blacksquare2.gif,pic103.bmp,Mask.bmp,0120116,10:16:31,4.0.5.0,24,blackdirect,4,3,1538,plus1,0,b01.bmp,Judgedirect,blacksquare2.gif,pic105.bmp,Mask.bmp,0120116,10:16:31,4.0.5.0,24,whitedirect,4,4,1134,minus1,0,b11.jpg,Judgedirect,blacksquare2.gif,pic101.bmp,Mask.bmp,0120116,10:16:31,4.0.5.0,24,blackdirect,4,5,2281,plus1,0,b02.bmp,Judgedirect,blacksquare2.gif,pic114.bmp,Mask.bmp,0120116,10:16:31,4.0.5.0,24,whitedirect,4,6,939,plus1,0,w08.bmp,Judgedirect,blacksquare2.gif,pic100.bmp,Mask.bmp,0120116,10:16:31,4.0.5.0,24,blackdirect,4,7,1876,plus1,0,b10.bmp,Judgedirect,blacksquare2.gif,pic106.bmp,Mask.bmp,0120116,10:16:31,4.0.5.0,24,whitedirect,4,8,3141,plus1,0,w06.bmp,Judgedirect,blacksquare2.gif,pic82.bmp,Mask.bmp,0120116,10:16:31,4.0.5.0,24,blackdirect,4,9,1807,minus1,0,b05.bmp,Judgedirect,blacksquare2.gif,pic116.bmp,Mask.bmp,0120116,10:16:31,4.0.5.0,24,whitedirect,4,10,1930,plus1,0,w07.bmp,Judgedirect,blacksquare2.gif,pic108.bmp,Mask.bmp,0120116,10:16:31,4.0.5.0,24,blackdirect,4,11,1049,plus1,0,b07.bmp,Judgedirect,blacksquare2.gif,pic117.bmp,Mask.bmp,0120116,10:16:31,4.0.5.0,24,whitedirect,4,12,614,plus1,0,w01.bmp,Judgedirect,blacksquare2.gif,pic104.bmp,Mask.bmp,0120116,10:16:31,4.0.5.0,24,blackdirect,4,13,1372,plus1,0,b03.bmp,Judgedirect,blacksquare2.gif,pic111.bmp,Mask.bmp,0120116,10:16:31,4.0.5.0,24,whitedirect,4,14,1079,minus1,0,w09.bmp,Judgedirect,blacksquare2.gif,pic80.bmp,Mask.bmp,0120116,10:16:31,4.0.5.0,24,blackdirect,4,15,1660,minus1,0,b12.bmp,Judgedirect,blacksquare2.gif,pic113.bmp,Mask.bmp,0120116,10:16:31,4.0.5.0,24,whitedirect,4,16,1356,minus2,0,w03.bmp,Judgedirect,blacksquare2.gif,pic79.bmp,Mask.bmp,0120116,10:16:31,4.0.5.0,24,blackdirect,4,17,943,minus1,0,b04.bmp,Judgedirect,blacksquare2.gif,pic112.bmp,Mask.bmp,0120116,10:16:31,4.0.5.0,24,whitedirect,4,18,905,minus2,0,b12.jpg,Judgedirect,blacksquare2.gif,pic78.bmp,Mask.bmp,0120116,10:16:31,4.0.5.0,24,blackdirect,4,19,1204,minus1,0,b06.bmp,Judgedirect,blacksquare2.gif,pic107.bmp,Mask.bmp,0120116,10:16:31,4.0.5.0,24,whitedirect,4,20,789,plus1,0,w05.bmp,Judgedirect,blacksquare2.gif,pic115.bmp,Mask.bmp,0120116,10:16:31,4.0.5.0,24,blackdirect,4,21,1020,plus1,0,b09.bmp,Judgedirect,blacksquare2.gif,pic109.bmp,Mask.bmp,0120116,10:16:31,4.0.5.0,24,whitedirect,4,22,875,plus1,0,b10.jpg,Judgedirect,blacksquare2.gif,pic110.bmp,Mask.bmp,0120116,10:16:31,4.0.5.0,24,blackdirect,4,23,727,minus1,0,b11.bmp,Judgedirect,blacksquare2.gif,pic102.bmp,Mask.bmp,0120116,10:16:31,4.0.5.0,24,whitedirect,4,24,5177,minus2,0,w02.bmp,Judgedirect,blacksquare2.gif,pic118.bmp,Mask.bmp,0120116,10:16:31,4.0.5.0,24,whiteindirect,6,1,3253,plus1,0,b12.jpg,Judgeindirect,blacksquare2.gif,pic39.bmp,Mask.bmp,0120116,10:16:31,4.0.5.0,24,whiteindirect,6,2,1060,plus1,0,b11.jpg,Judgeindirect,blacksquare2.gif,pic15.bmp,Mask.bmp,0120116,10:16:31,4.0.5.0,24,blackindirect,6,3,2218,minus1,0,b09.bmp,Judgeindirect,blacksquare2.gif,pic5.bmp,Mask.bmp,0120116,10:16:31,4.0.5.0,24,whiteindirect,6,4,1558,minus2,0,b10.jpg,Judgeindirect,blacksquare2.gif,pic73.bmp,Mask.bmp,0120116,10:16:31,4.0.5.0,24,whiteindirect,6,5,1377,plus1,0,w07.bmp,Judgeindirect,blacksquare2.gif,pic17.bmp,Mask.bmp,0120116,10:16:31,4.0.5.0,24,blackindirect,6,6,1028,plus1,0,b07.bmp,Judgeindirect,blacksquare2.gif,pic24.bmp,Mask.bmp,0120116,10:16:31,4.0.5.0,24,whiteindirect,6,7,3515,minus1,0,w08.bmp,Judgeindirect,blacksquare2.gif,pic62.bmp,Mask.bmp,0120116,10:16:31,4.0.5.0,24,neutral,6,8,1528,plus2,0,GREY.bmp,Judgeindirect,blacksquare2.gif,pic25.bmp,Mask.bmp,0120116,10:16:31,4.0.5.0,24,neutral,6,9,1309,plus1,0,GREY.bmp,Judgeindirect,blacksquare2.gif,pic18.bmp,Mask.bmp,0120116,10:16:31,4.0.5.0,24,neutral,6,10,2778,plus2,0,GREY.bmp,Judgeindirect,blacksquare2.gif,pic57.bmp,Mask.bmp,0120116,10:16:31,4.0.5.0,24,blackindirect,6,11,1642,plus2,0,b01.bmp,Judgeindirect,blacksquare2.gif,pic54.bmp,Mask.bmp,0120116,10:16:31,4.0.5.0,24,neutral,6,12,4858,plus2,0,GREY.bmp,Judgeindirect,blacksquare2.gif,pic75.bmp,Mask.bmp,0120116,10:16:31,4.0.5.0,24,neutral,6,13,1647,plus1,0,GREY.bmp,Judgeindirect,blacksquare2.gif,pic4.bmp,Mask.bmp,0120116,10:16:31,4.0.5.0,24,whiteindirect,6,14,1096,plus1,0,w04.bmp,Judgeindirect,blacksquare2.gif,pic46.bmp,Mask.bmp,0120116,10:16:31,4.0.5.0,24,whiteindirect,6,15,1164,minus1,0,w02.bmp,Judgeindirect,blacksquare2.gif,pic63.bmp,Mask.bmp,0120116,10:16:31,4.0.5.0,24,blackindirect,6,16,1318,plus2,0,b03.bmp,Judgeindirect,blacksquare2.gif,pic16.bmp,Mask.bmp,0120116,10:16:31,4.0.5.0,24,neutral,6,17,3810,plus1,0,GREY.bmp,Judgeindirect,blacksquare2.gif,pic64.bmp,Mask.bmp,0120116,10:16:31,4.0.5.0,24,blackindirect,6,18,604,plus1,0,b10.bmp,Judgeindirect,blacksquare2.gif,pic30.bmp,Mask.bmp,0120116,10:16:31,4.0.5.0,24,blackindirect,6,19,1058,minus1,0,b02.bmp,Judgeindirect,blacksquare2.gif,pic70.bmp,Mask.bmp,0120116,10:16:31,4.0.5.0,24,blackindirect,6,20,976,plus1,0,b04.bmp,Judgeindirect,blacksquare2.gif,pic59.bmp,Mask.bmp,0120116,10:16:31,4.0.5.0,24,whiteindirect,6,21,729,plus1,0,w01.bmp,Judgeindirect,blacksquare2.gif,pic52.bmp,Mask.bmp,0120116,10:16:31,4.0.5.0,24,neutral,6,22,1075,plus1,0,GREY.bmp,Judgeindirect,blacksquare2.gif,pic74.bmp,Mask.bmp,0120116,10:16:31,4.0.5.0,24,whiteindirect,6,23,1752,minus1,0,w06.bmp,Judgeindirect,blacksquare2.gif,pic7.bmp,Mask.bmp,0120116,10:16:31,4.0.5.0,24,whiteindirect,6,24,1180,plus1,0,w05.bmp,Judgeindirect,blacksquare2.gif,pic49.bmp,Mask.bmp,0120116,10:16:31,4.0.5.0,24,whiteindirect,6,25,1253,plus2,0,w03.bmp,Judgeindirect,blacksquare2.gif,pic51.bmp,Mask.bmp,0120116,10:16:31,4.0.5.0,24,neutral,6,26,932,plus1,0,GREY.bmp,Judgeindirect,blacksquare2.gif,pic34.bmp,Mask.bmp,0120116,10:16:31,4.0.5.0,24,whiteindirect,6,27,1118,plus1,0,w09.bmp,Judgeindirect,blacksquare2.gif,pic1.bmp,Mask.bmp,0120116,10:16:31,4.0.5.0,24,neutral,6,28,2033,plus2,0,GREY.bmp,Judgeindirect,blacksquare2.gif,pic65.bmp,Mask.bmp,0120116,10:16:31,4.0.5.0,24,neutral,6,29,2100,minus1,0,GREY.bmp,Judgeindirect,blacksquare2.gif,pic26.bmp,Mask.bmp,0120116,10:16:31,4.0.5.0,24,whiteindirect,6,30,1076,plus1,0,w08.bmp,Judgeindirect,blacksquare2.gif,pic8.bmp,Mask.bmp,0120116,10:16:31,4.0.5.0,24,blackindirect,6,31,1601,minus2,0,b06.bmp,Judgeindirect,blacksquare2.gif,pic22.bmp,Mask.bmp,0120116,10:16:31,4.0.5.0,24,neutral,6,32,1315,plus1,0,GREY.bmp,Judgeindirect,blacksquare2.gif,pic6.bmp,Mask.bmp,0120116,10:16:31,4.0.5.0,24,blackindirect,6,33,1023,plus2,0,b05.bmp,Judgeindirect,blacksquare2.gif,pic10.bmp,Mask.bmp,0120116,10:16:31,4.0.5.0,24,blackindirect,6,34,982,plus2,0,b12.bmp,Judgeindirect,blacksquare2.gif,pic3.bmp,Mask.bmp,0120116,10:16:31,4.0.5.0,24,blackindirect,6,35,1023,minus1,0,b08.bmp,Judgeindirect,blacksquare2.gif,pic23.bmp,Mask.bmp,0120116,10:16:31,4.0.5.0,24,blackindirect,6,36,1510,plus1,0,b11.bmp,Judgeindirect,blacksquare2.gif,pic58.bmp,Mask.bmp,0120116,10:16:31,4.0.5.0,24,blackindirect,6,37,707,plus1,0,b02.bmp,Judgeindirect,blacksquare2.gif,pic55.bmp,Mask.bmp,0120116,10:16:31,4.0.5.0,24,blackindirect,6,38,1366,plus2,0,b06.bmp,Judgeindirect,blacksquare2.gif,pic31.bmp,Mask.bmp,0120116,10:16:31,4.0.5.0,24,neutral,6,39,984,plus2,0,GREY.bmp,Judgeindirect,blacksquare2.gif,pic69.bmp,Mask.bmp,0120116,10:16:31,4.0.5.0,24,neutral,6,40,1000,plus1,0,GREY.bmp,Judgeindirect,blacksquare2.gif,pic67.bmp,Mask.bmp,0120116,10:16:31,4.0.5.0,24,blackindirect,6,41,1840,minus1,0,b08.bmp,Judgeindirect,blacksquare2.gif,pic21.bmp,Mask.bmp,0120116,10:16:31,4.0.5.0,24,neutral,6,42,1273,plus1,0,GREY.bmp,Judgeindirect,blacksquare2.gif,pic32.bmp,Mask.bmp,0120116,10:16:31,4.0.5.0,24,neutral,6,43,1031,plus1,0,GREY.bmp,Judgeindirect,blacksquare2.gif,pic9.bmp,Mask.bmp,0120116,10:16:31,4.0.5.0,24,neutral,6,44,750,plus1,0,GREY.bmp,Judgeindirect,blacksquare2.gif,pic71.bmp,Mask.bmp,0120116,10:16:31,4.0.5.0,24,whiteindirect,6,45,1286,plus1,0,w05.bmp,Judgeindirect,blacksquare2.gif,pic53.bmp,Mask.bmp,0120116,10:16:31,4.0.5.0,24,blackindirect,6,46,1284,minus1,0,b10.bmp,Judgeindirect,blacksquare2.gif,pic60.bmp,Mask.bmp,0120116,10:16:31,4.0.5.0,24,whiteindirect,6,47,1169,plus2,0,w03.bmp,Judgeindirect,blacksquare2.gif,pic41.bmp,Mask.bmp,0120116,10:16:31,4.0.5.0,24,whiteindirect,6,48,1339,minus2,0,w01.bmp,Judgeindirect,blacksquare2.gif,pic11.bmp,Mask.bmp,0120116,10:16:31,4.0.5.0,24,blackindirect,6,49,910,plus1,0,b01.bmp,Judgeindirect,blacksquare2.gif,pic42.bmp,Mask.bmp,0120116,10:16:31,4.0.5.0,24,whiteindirect,6,50,1033,minus1,0,b11.jpg,Judgeindirect,blacksquare2.gif,pic38.bmp,Mask.bmp,0120116,10:16:31,4.0.5.0,24,blackindirect,6,51,864,plus1,0,b12.bmp,Judgeindirect,blacksquare2.gif,pic45.bmp,Mask.bmp,0120116,10:16:31,4.0.5.0,24,blackindirect,6,52,1325,minus1,0,b05.bmp,Judgeindirect,blacksquare2.gif,pic43.bmp,Mask.bmp,0120116,10:16:31,4.0.5.0,24,whiteindirect,6,53,761,plus1,0,w07.bmp,Judgeindirect,blacksquare2.gif,pic36.bmp,Mask.bmp,0120116,10:16:31,4.0.5.0,24,neutral,6,54,1394,minus1,0,GREY.bmp,Judgeindirect,blacksquare2.gif,pic13.bmp,Mask.bmp,0120116,10:16:31,4.0.5.0,24,blackindirect,6,55,715,plus1,0,b04.bmp,Judgeindirect,blacksquare2.gif,pic44.bmp,Mask.bmp,0120116,10:16:31,4.0.5.0,24,whiteindirect,6,56,909,minus1,0,w09.bmp,Judgeindirect,blacksquare2.gif,pic33.bmp,Mask.bmp,0120116,10:16:31,4.0.5.0,24,neutral,6,57,904,plus1,0,GREY.bmp,Judgeindirect,blacksquare2.gif,pic47.bmp,Mask.bmp,0120116,10:16:31,4.0.5.0,24,neutral,6,58,555,plus1,0,GREY.bmp,Judgeindirect,blacksquare2.gif,pic14.bmp,Mask.bmp,0120116,10:16:31,4.0.5.0,24,neutral,6,59,595,plus1,0,GREY.bmp,Judgeindirect,blacksquare2.gif,pic40.bmp,Mask.bmp,0120116,10:16:31,4.0.5.0,24,neutral,6,60,514,plus1,0,GREY.bmp,Judgeindirect,blacksquare2.gif,pic66.bmp,Mask.bmp,0120116,10:16:31,4.0.5.0,24,blackindirect,6,61,867,plus1,0,b03.bmp,Judgeindirect,blacksquare2.gif,pic37.bmp,Mask.bmp,0120116,10:16:31,4.0.5.0,24,blackindirect,6,62,1800,minus2,0,b11.bmp,Judgeindirect,blacksquare2.gif,pic12.bmp,Mask.bmp,0120116,10:16:31,4.0.5.0,24,whiteindirect,6,63,1330,minus2,0,b12.jpg,Judgeindirect,blacksquare2.gif,pic20.bmp,Mask.bmp,0120116,10:16:31,4.0.5.0,24,whiteindirect,6,64,998,minus2,0,w02.bmp,Judgeindirect,blacksquare2.gif,pic28.bmp,Mask.bmp,0120116,10:16:31,4.0.5.0,24,neutral,6,65,1414,minus1,0,GREY.bmp,Judgeindirect,blacksquare2.gif,pic19.bmp,Mask.bmp,0120116,10:16:31,4.0.5.0,24,neutral,6,66,1310,plus1,0,GREY.bmp,Judgeindirect,blacksquare2.gif,pic50.bmp,Mask.bmp,0120116,10:16:31,4.0.5.0,24,whiteindirect,6,67,1843,minus1,0,w06.bmp,Judgeindirect,blacksquare2.gif,pic72.bmp,Mask.bmp,0120116,10:16:31,4.0.5.0,24,blackindirect,6,68,1797,minus1,0,b09.bmp,Judgeindirect,blacksquare2.gif,pic27.bmp,Mask.bmp,0120116,10:16:31,4.0.5.0,24,neutral,6,69,1368,minus2,0,GREY.bmp,Judgeindirect,blacksquare2.gif,pic56.bmp,Mask.bmp,0120116,10:16:31,4.0.5.0,24,whiteindirect,6,70,1570,plus1,0,b10.jpg,Judgeindirect,blacksquare2.gif,pic29.bmp,Mask.bmp,0120116,10:16:31,4.0.5.0,24,blackindirect,6,71,901,plus1,0,b07.bmp,Judgeindirect,blacksquare2.gif,pic48.bmp,Mask.bmp,0120116,10:16:31,4.0.5.0,24,whiteindirect,6,72,600,plus1,0,w04.bmp,Judgeindirect,blacksquare2.gif,pic2.bmp,Mask.bmp,0120116,10:16:31,4.0.5.0,24,sesso,7,1,11200,1,1,0,demo,0,0,0,0120116,10:16:31,4.0.5.0,24,anni,7,1,11200,27,1,0,demo,0,0,0,0120116,10:16:31,4.0.5.0,24,etnia,7,1,11200,Caucasico,1,0,demo,0,0,0,0120116,10:30:38,4.0.5.0,26,practice,1,1,3698,57,1,sample.bmp,orient1,blacksquare2.gif,pic76.bmp,Mask.bmp,0120116,10:30:38,4.0.5.0,26,neutral,4,1,5151,plus1,0,GREY.bmp,Judgeindirect,blacksquare2.gif,pic36.bmp,Mask.bmp,0120116,10:30:38,4.0.5.0,26,whiteindirect,4,2,3802,plus1,0,w04.bmp,Judgeindirect,blacksquare2.gif,pic7.bmp,Mask.bmp,0120116,10:30:38,4.0.5.0,26,neutral,4,3,5549,plus1,0,GREY.bmp,Judgeindirect,blacksquare2.gif,pic34.bmp,Mask.bmp,0120116,10:30:38,4.0.5.0,26,whiteindirect,4,4,2801,plus1,0,w03.bmp,Judgeindirect,blacksquare2.gif,pic30.bmp,Mask.bmp,0120116,10:30:38,4.0.5.0,26,neutral,4,5,4671,plus1,0,GREY.bmp,Judgeindirect,blacksquare2.gif,pic10.bmp,Mask.bmp,0120116,10:30:38,4.0.5.0,26,whiteindirect,4,6,2195,plus1,0,w09.bmp,Judgeindirect,blacksquare2.gif,pic19.bmp,Mask.bmp,0120116,10:30:38,4.0.5.0,26,whiteindirect,4,7,1799,plus1,0,w06.bmp,Judgeindirect,blacksquare2.gif,pic57.bmp,Mask.bmp,0120116,10:30:38,4.0.5.0,26,blackindirect,4,8,3290,plus1,0,b05.bmp,Judgeindirect,blacksquare2.gif,pic70.bmp,Mask.bmp,0120116,10:30:38,4.0.5.0,26,whiteindirect,4,9,2111,plus1,0,b10.jpg,Judgeindirect,blacksquare2.gif,pic75.bmp,Mask.bmp,0120116,10:30:38,4.0.5.0,26,whiteindirect,4,10,1399,plus1,0,w08.bmp,Judgeindirect,blacksquare2.gif,pic55.bmp,Mask.bmp,0120116,10:30:38,4.0.5.0,26,blackindirect,4,11,3032,plus1,0,b03.bmp,Judgeindirect,blacksquare2.gif,pic5.bmp,Mask.bmp,0120116,10:30:38,4.0.5.0,26,blackindirect,4,12,3199,plus1,0,b06.bmp,Judgeindirect,blacksquare2.gif,pic9.bmp,Mask.bmp,0120116,10:30:38,4.0.5.0,26,whiteindirect,4,13,1583,plus1,0,w02.bmp,Judgeindirect,blacksquare2.gif,pic46.bmp,Mask.bmp,0120116,10:30:38,4.0.5.0,26,neutral,4,14,2034,minus1,0,GREY.bmp,Judgeindirect,blacksquare2.gif,pic26.bmp,Mask.bmp,0120116,10:30:38,4.0.5.0,26,neutral,4,15,1797,minus1,0,GREY.bmp,Judgeindirect,blacksquare2.gif,pic65.bmp,Mask.bmp,0120116,10:30:38,4.0.5.0,26,whiteindirect,4,16,1479,plus1,0,w05.bmp,Judgeindirect,blacksquare2.gif,pic68.bmp,Mask.bmp,0120116,10:30:38,4.0.5.0,26,neutral,4,17,1822,plus1,0,GREY.bmp,Judgeindirect,blacksquare2.gif,pic61.bmp,Mask.bmp,0120116,10:30:38,4.0.5.0,26,neutral,4,18,1944,plus1,0,GREY.bmp,Judgeindirect,blacksquare2.gif,pic28.bmp,Mask.bmp,0120116,10:30:38,4.0.5.0,26,blackindirect,4,19,1517,plus1,0,b09.bmp,Judgeindirect,blacksquare2.gif,pic43.bmp,Mask.bmp,0120116,10:30:38,4.0.5.0,26,blackindirect,4,20,1762,plus1,0,b12.bmp,Judgeindirect,blacksquare2.gif,pic33.bmp,Mask.bmp,0120116,10:30:38,4.0.5.0,26,whiteindirect,4,21,1151,plus1,0,w07.bmp,Judgeindirect,blacksquare2.gif,pic53.bmp,Mask.bmp,0120116,10:30:38,4.0.5.0,26,neutral,4,22,2681,minus1,0,GREY.bmp,Judgeindirect,blacksquare2.gif,pic17.bmp,Mask.bmp,0120116,10:30:38,4.0.5.0,26,neutral,4,23,1500,minus1,0,GREY.bmp,Judgeindirect,blacksquare2.gif,pic1.bmp,Mask.bmp,0120116,10:30:38,4.0.5.0,26,neutral,4,24,4137,minus1,0,GREY.bmp,Judgeindirect,blacksquare2.gif,pic38.bmp,Mask.bmp,0120116,10:30:38,4.0.5.0,26,blackindirect,4,25,1320,plus1,0,b04.bmp,Judgeindirect,blacksquare2.gif,pic69.bmp,Mask.bmp,0120116,10:30:38,4.0.5.0,26,blackindirect,4,26,812,plus1,0,b10.bmp,Judgeindirect,blacksquare2.gif,pic20.bmp,Mask.bmp,0120116,10:30:38,4.0.5.0,26,blackindirect,4,27,683,plus1,0,b01.bmp,Judgeindirect,blacksquare2.gif,pic4.bmp,Mask.bmp,0120116,10:30:38,4.0.5.0,26,whiteindirect,4,28,1862,plus1,0,w01.bmp,Judgeindirect,blacksquare2.gif,pic37.bmp,Mask.bmp,0120116,10:30:38,4.0.5.0,26,whiteindirect,4,29,1110,plus1,0,b11.jpg,Judgeindirect,blacksquare2.gif,pic16.bmp,Mask.bmp,0120116,10:30:38,4.0.5.0,26,neutral,4,30,3882,minus1,0,GREY.bmp,Judgeindirect,blacksquare2.gif,pic44.bmp,Mask.bmp,0120116,10:30:38,4.0.5.0,26,whiteindirect,4,31,1875,plus1,0,b12.jpg,Judgeindirect,blacksquare2.gif,pic60.bmp,Mask.bmp,0120116,10:30:38,4.0.5.0,26,whiteindirect,4,32,747,plus1,0,w02.bmp,Judgeindirect,blacksquare2.gif,pic15.bmp,Mask.bmp,0120116,10:30:38,4.0.5.0,26,whiteindirect,4,33,508,plus1,0,b10.jpg,Judgeindirect,blacksquare2.gif,pic42.bmp,Mask.bmp,0120116,10:30:38,4.0.5.0,26,whiteindirect,4,34,1006,plus1,0,w03.bmp,Judgeindirect,blacksquare2.gif,pic3.bmp,Mask.bmp,0120116,10:30:38,4.0.5.0,26,blackindirect,4,35,1533,plus2,0,b07.bmp,Judgeindirect,blacksquare2.gif,pic11.bmp,Mask.bmp,0120116,10:30:38,4.0.5.0,26,neutral,4,36,4074,minus1,0,GREY.bmp,Judgeindirect,blacksquare2.gif,pic31.bmp,Mask.bmp,0120116,10:30:38,4.0.5.0,26,blackindirect,4,37,1075,plus1,0,b08.bmp,Judgeindirect,blacksquare2.gif,pic32.bmp,Mask.bmp,0120116,10:30:38,4.0.5.0,26,blackindirect,4,38,752,plus1,0,b11.bmp,Judgeindirect,blacksquare2.gif,pic40.bmp,Mask.bmp,0120116,10:30:38,4.0.5.0,26,neutral,4,39,4328,minus1,0,GREY.bmp,Judgeindirect,blacksquare2.gif,pic72.bmp,Mask.bmp,0120116,10:30:38,4.0.5.0,26,blackindirect,4,40,968,plus1,0,b02.bmp,Judgeindirect,blacksquare2.gif,pic13.bmp,Mask.bmp,0120116,10:30:38,4.0.5.0,26,blackindirect,4,41,1801,plus1,0,b03.bmp,Judgeindirect,blacksquare2.gif,pic54.bmp,Mask.bmp,0120116,10:30:38,4.0.5.0,26,blackindirect,4,42,868,plus1,0,b10.bmp,Judgeindirect,blacksquare2.gif,pic74.bmp,Mask.bmp,0120116,10:30:38,4.0.5.0,26,whiteindirect,4,43,776,plus1,0,w06.bmp,Judgeindirect,blacksquare2.gif,pic6.bmp,Mask.bmp,0120116,10:30:38,4.0.5.0,26,blackindirect,4,44,944,plus1,0,b11.bmp,Judgeindirect,blacksquare2.gif,pic66.bmp,Mask.bmp,0120116,10:30:38,4.0.5.0,26,whiteindirect,4,45,930,plus1,0,w08.bmp,Judgeindirect,blacksquare2.gif,pic41.bmp,Mask.bmp,0120116,10:30:38,4.0.5.0,26,neutral,4,46,1548,minus1,0,GREY.bmp,Judgeindirect,blacksquare2.gif,pic8.bmp,Mask.bmp,0120116,10:30:38,4.0.5.0,26,whiteindirect,4,47,1176,plus1,0,w09.bmp,Judgeindirect,blacksquare2.gif,pic64.bmp,Mask.bmp,0120116,10:30:38,4.0.5.0,26,neutral,4,48,1346,plus1,0,GREY.bmp,Judgeindirect,blacksquare2.gif,pic25.bmp,Mask.bmp,0120116,10:30:38,4.0.5.0,26,whiteindirect,4,49,1757,plus1,0,b12.jpg,Judgeindirect,blacksquare2.gif,pic39.bmp,Mask.bmp,0120116,10:30:38,4.0.5.0,26,blackindirect,4,50,1273,plus1,0,b07.bmp,Judgeindirect,blacksquare2.gif,pic29.bmp,Mask.bmp,0120116,10:30:38,4.0.5.0,26,whiteindirect,4,51,943,plus1,0,w04.bmp,Judgeindirect,blacksquare2.gif,pic71.bmp,Mask.bmp,0120116,10:30:38,4.0.5.0,26,neutral,4,52,1473,minus1,0,GREY.bmp,Judgeindirect,blacksquare2.gif,pic59.bmp,Mask.bmp,0120116,10:30:38,4.0.5.0,26,neutral,4,53,1336,minus1,0,GREY.bmp,Judgeindirect,blacksquare2.gif,pic67.bmp,Mask.bmp,0120116,10:30:38,4.0.5.0,26,neutral,4,54,604,minus1,0,GREY.bmp,Judgeindirect,blacksquare2.gif,pic73.bmp,Mask.bmp,0120116,10:30:38,4.0.5.0,26,neutral,4,55,642,minus1,0,GREY.bmp,Judgeindirect,blacksquare2.gif,pic45.bmp,Mask.bmp,0120116,10:30:38,4.0.5.0,26,neutral,4,56,622,minus1,0,GREY.bmp,Judgeindirect,blacksquare2.gif,pic23.bmp,Mask.bmp,0120116,10:30:38,4.0.5.0,26,blackindirect,4,57,964,plus1,0,b01.bmp,Judgeindirect,blacksquare2.gif,pic2.bmp,Mask.bmp,0120116,10:30:38,4.0.5.0,26,whiteindirect,4,58,437,plus1,0,w05.bmp,Judgeindirect,blacksquare2.gif,pic49.bmp,Mask.bmp,0120116,10:30:38,4.0.5.0,26,neutral,4,59,1600,minus1,0,GREY.bmp,Judgeindirect,blacksquare2.gif,pic48.bmp,Mask.bmp,0120116,10:30:38,4.0.5.0,26,blackindirect,4,60,731,plus1,0,b04.bmp,Judgeindirect,blacksquare2.gif,pic47.bmp,Mask.bmp,0120116,10:30:38,4.0.5.0,26,whiteindirect,4,61,572,plus1,0,b11.jpg,Judgeindirect,blacksquare2.gif,pic52.bmp,Mask.bmp,0120116,10:30:38,4.0.5.0,26,blackindirect,4,62,915,plus1,0,b12.bmp,Judgeindirect,blacksquare2.gif,pic27.bmp,Mask.bmp,0120116,10:30:38,4.0.5.0,26,neutral,4,63,1254,minus1,0,GREY.bmp,Judgeindirect,blacksquare2.gif,pic12.bmp,Mask.bmp,0120116,10:30:38,4.0.5.0,26,blackindirect,4,64,940,plus1,0,b08.bmp,Judgeindirect,blacksquare2.gif,pic24.bmp,Mask.bmp,0120116,10:30:38,4.0.5.0,26,blackindirect,4,65,790,plus1,0,b09.bmp,Judgeindirect,blacksquare2.gif,pic51.bmp,Mask.bmp,0120116,10:30:38,4.0.5.0,26,blackindirect,4,66,1286,plus1,0,b06.bmp,Judgeindirect,blacksquare2.gif,pic18.bmp,Mask.bmp,0120116,10:30:38,4.0.5.0,26,blackindirect,4,67,715,plus1,0,b05.bmp,Judgeindirect,blacksquare2.gif,pic63.bmp,Mask.bmp,0120116,10:30:38,4.0.5.0,26,neutral,4,68,2637,minus1,0,GREY.bmp,Judgeindirect,blacksquare2.gif,pic21.bmp,Mask.bmp,0120116,10:30:38,4.0.5.0,26,neutral,4,69,1322,minus1,0,GREY.bmp,Judgeindirect,blacksquare2.gif,pic62.bmp,Mask.bmp,0120116,10:30:38,4.0.5.0,26,whiteindirect,4,70,950,plus1,0,w07.bmp,Judgeindirect,blacksquare2.gif,pic58.bmp,Mask.bmp,0120116,10:30:38,4.0.5.0,26,blackindirect,4,71,703,plus1,0,b02.bmp,Judgeindirect,blacksquare2.gif,pic56.bmp,Mask.bmp,0120116,10:30:38,4.0.5.0,26,whiteindirect,4,72,818,plus1,0,w01.bmp,Judgeindirect,blacksquare2.gif,pic22.bmp,Mask.bmp,0120116,10:30:38,4.0.5.0,26,blackdirect,6,1,5488,minus1,0,b01.bmp,Judgedirect,blacksquare2.gif,pic106.bmp,Mask.bmp,0120116,10:30:38,4.0.5.0,26,whitedirect,6,2,1151,plus1,0,w05.bmp,Judgedirect,blacksquare2.gif,pic105.bmp,Mask.bmp,0120116,10:30:38,4.0.5.0,26,blackdirect,6,3,529,plus1,0,b06.bmp,Judgedirect,blacksquare2.gif,pic107.bmp,Mask.bmp,0120116,10:30:38,4.0.5.0,26,whitedirect,6,4,2954,minus1,0,w03.bmp,Judgedirect,blacksquare2.gif,pic110.bmp,Mask.bmp,0120116,10:30:38,4.0.5.0,26,blackdirect,6,5,907,plus1,0,b11.bmp,Judgedirect,blacksquare2.gif,pic112.bmp,Mask.bmp,0120116,10:30:38,4.0.5.0,26,whitedirect,6,6,2014,plus1,0,b11.jpg,Judgedirect,blacksquare2.gif,pic118.bmp,Mask.bmp,0120116,10:30:38,4.0.5.0,26,blackdirect,6,7,466,plus1,0,b07.bmp,Judgedirect,blacksquare2.gif,pic116.bmp,Mask.bmp,0120116,10:30:38,4.0.5.0,26,whitedirect,6,8,2181,minus1,0,w09.bmp,Judgedirect,blacksquare2.gif,pic81.bmp,Mask.bmp,0120116,10:30:38,4.0.5.0,26,blackdirect,6,9,906,plus1,0,b09.bmp,Judgedirect,blacksquare2.gif,pic117.bmp,Mask.bmp,0120116,10:30:38,4.0.5.0,26,whitedirect,6,10,669,plus1,0,w01.bmp,Judgedirect,blacksquare2.gif,pic115.bmp,Mask.bmp,0120116,10:30:38,4.0.5.0,26,blackdirect,6,11,1009,plus1,0,b10.bmp,Judgedirect,blacksquare2.gif,pic113.bmp,Mask.bmp,0120116,10:30:38,4.0.5.0,26,whitedirect,6,12,504,plus1,0,w07.bmp,Judgedirect,blacksquare2.gif,pic82.bmp,Mask.bmp,0120116,10:30:38,4.0.5.0,26,blackdirect,6,13,1618,plus1,0,b12.bmp,Judgedirect,blacksquare2.gif,pic108.bmp,Mask.bmp,0120116,10:30:38,4.0.5.0,26,whitedirect,6,14,523,plus1,0,w06.bmp,Judgedirect,blacksquare2.gif,pic109.bmp,Mask.bmp,0120116,10:30:38,4.0.5.0,26,blackdirect,6,15,5212,minus1,0,b02.bmp,Judgedirect,blacksquare2.gif,pic80.bmp,Mask.bmp,0120116,10:30:38,4.0.5.0,26,whitedirect,6,16,3972,plus1,0,b12.jpg,Judgedirect,blacksquare2.gif,pic104.bmp,Mask.bmp,0120116,10:30:38,4.0.5.0,26,blackdirect,6,17,472,plus1,0,b08.bmp,Judgedirect,blacksquare2.gif,pic101.bmp,Mask.bmp,0120116,10:30:38,4.0.5.0,26,whitedirect,6,18,595,plus1,0,w04.bmp,Judgedirect,blacksquare2.gif,pic78.bmp,Mask.bmp,0120116,10:30:38,4.0.5.0,26,blackdirect,6,19,2065,plus1,0,b05.bmp,Judgedirect,blacksquare2.gif,pic102.bmp,Mask.bmp,0120116,10:30:38,4.0.5.0,26,whitedirect,6,20,1531,minus1,0,b10.jpg,Judgedirect,blacksquare2.gif,pic111.bmp,Mask.bmp,0120116,10:30:38,4.0.5.0,26,blackdirect,6,21,1207,plus1,0,b04.bmp,Judgedirect,blacksquare2.gif,pic100.bmp,Mask.bmp,0120116,10:30:38,4.0.5.0,26,whitedirect,6,22,3000,plus1,0,w08.bmp,Judgedirect,blacksquare2.gif,pic114.bmp,Mask.bmp,0120116,10:30:38,4.0.5.0,26,blackdirect,6,23,2415,plus2,0,b03.bmp,Judgedirect,blacksquare2.gif,pic103.bmp,Mask.bmp,0120116,10:30:38,4.0.5.0,26,whitedirect,6,24,1644,minus1,0,w02.bmp,Judgedirect,blacksquare2.gif,pic79.bmp,Mask.bmp,0120116,10:30:38,4.0.5.0,26,sesso,7,1,9651,2,1,0,demo,0,0,0,0120116,10:30:38,4.0.5.0,26,anni,7,1,9651,20,1,0,demo,0,0,0,0120116,10:30:38,4.0.5.0,26,etnia,7,1,9651,Caucasico,1,0,demo,0,0,0,0120116,10:44:45,4.0.5.0,28,practice,1,1,3475,57,1,sample.bmp,orient1,blacksquare2.gif,pic76.bmp,Mask.bmp,0120116,10:44:45,4.0.5.0,28,whitedirect,4,1,4184,plus1,0,b10.jpg,Judgedirect,blacksquare2.gif,pic108.bmp,Mask.bmp,0120116,10:44:45,4.0.5.0,28,blackdirect,4,2,4069,plus1,0,b06.bmp,Judgedirect,blacksquare2.gif,pic117.bmp,Mask.bmp,0120116,10:44:45,4.0.5.0,28,whitedirect,4,3,2446,plus1,0,w07.bmp,Judgedirect,blacksquare2.gif,pic109.bmp,Mask.bmp,0120116,10:44:45,4.0.5.0,28,blackdirect,4,4,1722,minus1,0,b11.bmp,Judgedirect,blacksquare2.gif,pic111.bmp,Mask.bmp,0120116,10:44:45,4.0.5.0,28,whitedirect,4,5,1248,minus2,0,w02.bmp,Judgedirect,blacksquare2.gif,pic105.bmp,Mask.bmp,0120116,10:44:45,4.0.5.0,28,blackdirect,4,6,1278,plus1,0,b04.bmp,Judgedirect,blacksquare2.gif,pic107.bmp,Mask.bmp,0120116,10:44:45,4.0.5.0,28,whitedirect,4,7,1860,plus1,0,w01.bmp,Judgedirect,blacksquare2.gif,pic102.bmp,Mask.bmp,0120116,10:44:45,4.0.5.0,28,blackdirect,4,8,1293,plus2,0,b07.bmp,Judgedirect,blacksquare2.gif,pic82.bmp,Mask.bmp,0120116,10:44:45,4.0.5.0,28,whitedirect,4,9,1818,minus1,0,b12.jpg,Judgedirect,blacksquare2.gif,pic80.bmp,Mask.bmp,0120116,10:44:45,4.0.5.0,28,blackdirect,4,10,1340,minus2,0,b03.bmp,Judgedirect,blacksquare2.gif,pic112.bmp,Mask.bmp,0120116,10:44:45,4.0.5.0,28,whitedirect,4,11,1080,plus1,0,w03.bmp,Judgedirect,blacksquare2.gif,pic78.bmp,Mask.bmp,0120116,10:44:45,4.0.5.0,28,blackdirect,4,12,1541,plus2,0,b09.bmp,Judgedirect,blacksquare2.gif,pic114.bmp,Mask.bmp,0120116,10:44:45,4.0.5.0,28,whitedirect,4,13,2081,plus1,0,w08.bmp,Judgedirect,blacksquare2.gif,pic101.bmp,Mask.bmp,0120116,10:44:45,4.0.5.0,28,blackdirect,4,14,1570,minus2,0,b01.bmp,Judgedirect,blacksquare2.gif,pic106.bmp,Mask.bmp,0120116,10:44:45,4.0.5.0,28,whitedirect,4,15,1205,minus1,0,w05.bmp,Judgedirect,blacksquare2.gif,pic100.bmp,Mask.bmp,0120116,10:44:45,4.0.5.0,28,blackdirect,4,16,1085,minus1,0,b02.bmp,Judgedirect,blacksquare2.gif,pic104.bmp,Mask.bmp,0120116,10:44:45,4.0.5.0,28,whitedirect,4,17,1402,plus2,0,w06.bmp,Judgedirect,blacksquare2.gif,pic118.bmp,Mask.bmp,0120116,10:44:45,4.0.5.0,28,blackdirect,4,18,1075,plus1,0,b08.bmp,Judgedirect,blacksquare2.gif,pic115.bmp,Mask.bmp,0120116,10:44:45,4.0.5.0,28,whitedirect,4,19,1184,minus1,0,w09.bmp,Judgedirect,blacksquare2.gif,pic103.bmp,Mask.bmp,0120116,10:44:45,4.0.5.0,28,blackdirect,4,20,1185,plus1,0,b12.bmp,Judgedirect,blacksquare2.gif,pic79.bmp,Mask.bmp,0120116,10:44:45,4.0.5.0,28,whitedirect,4,21,2202,plus1,0,w04.bmp,Judgedirect,blacksquare2.gif,pic113.bmp,Mask.bmp,0120116,10:44:45,4.0.5.0,28,blackdirect,4,22,1071,minus1,0,b10.bmp,Judgedirect,blacksquare2.gif,pic110.bmp,Mask.bmp,0120116,10:44:45,4.0.5.0,28,whitedirect,4,23,1132,minus2,0,b11.jpg,Judgedirect,blacksquare2.gif,pic116.bmp,Mask.bmp,0120116,10:44:45,4.0.5.0,28,blackdirect,4,24,527,minus2,0,b05.bmp,Judgedirect,blacksquare2.gif,pic81.bmp,Mask.bmp,0120116,10:44:45,4.0.5.0,28,neutral,6,1,4132,plus1,0,GREY.bmp,Judgeindirect,blacksquare2.gif,pic42.bmp,Mask.bmp,0120116,10:44:45,4.0.5.0,28,neutral,6,2,1435,plus1,0,GREY.bmp,Judgeindirect,blacksquare2.gif,pic4.bmp,Mask.bmp,0120116,10:44:45,4.0.5.0,28,whiteindirect,6,3,3587,plus2,0,w06.bmp,Judgeindirect,blacksquare2.gif,pic43.bmp,Mask.bmp,0120116,10:44:45,4.0.5.0,28,whiteindirect,6,4,1837,plus1,0,b12.jpg,Judgeindirect,blacksquare2.gif,pic63.bmp,Mask.bmp,0120116,10:44:45,4.0.5.0,28,neutral,6,5,2431,minus1,0,GREY.bmp,Judgeindirect,blacksquare2.gif,pic28.bmp,Mask.bmp,0120116,10:44:45,4.0.5.0,28,neutral,6,6,931,minus1,0,GREY.bmp,Judgeindirect,blacksquare2.gif,pic53.bmp,Mask.bmp,0120116,10:44:45,4.0.5.0,28,whiteindirect,6,7,1317,plus1,0,b11.jpg,Judgeindirect,blacksquare2.gif,pic46.bmp,Mask.bmp,0120116,10:44:45,4.0.5.0,28,neutral,6,8,1785,plus2,0,GREY.bmp,Judgeindirect,blacksquare2.gif,pic70.bmp,Mask.bmp,0120116,10:44:45,4.0.5.0,28,blackindirect,6,9,797,plus2,0,b04.bmp,Judgeindirect,blacksquare2.gif,pic64.bmp,Mask.bmp,0120116,10:44:45,4.0.5.0,28,whiteindirect,6,10,1300,plus1,0,w03.bmp,Judgeindirect,blacksquare2.gif,pic54.bmp,Mask.bmp,0120116,10:44:45,4.0.5.0,28,neutral,6,11,1721,plus2,0,GREY.bmp,Judgeindirect,blacksquare2.gif,pic11.bmp,Mask.bmp,0120116,10:44:45,4.0.5.0,28,neutral,6,12,1071,plus2,0,GREY.bmp,Judgeindirect,blacksquare2.gif,pic12.bmp,Mask.bmp,0120116,10:44:45,4.0.5.0,28,whiteindirect,6,13,1380,plus2,0,w04.bmp,Judgeindirect,blacksquare2.gif,pic66.bmp,Mask.bmp,0120116,10:44:45,4.0.5.0,28,neutral,6,14,1485,plus1,0,GREY.bmp,Judgeindirect,blacksquare2.gif,pic6.bmp,Mask.bmp,0120116,10:44:45,4.0.5.0,28,neutral,6,15,1484,plus2,0,GREY.bmp,Judgeindirect,blacksquare2.gif,pic26.bmp,Mask.bmp,0120116,10:44:45,4.0.5.0,28,whiteindirect,6,16,1730,plus1,0,w01.bmp,Judgeindirect,blacksquare2.gif,pic24.bmp,Mask.bmp,0120116,10:44:45,4.0.5.0,28,whiteindirect,6,17,2063,minus1,0,w08.bmp,Judgeindirect,blacksquare2.gif,pic74.bmp,Mask.bmp,0120116,10:44:45,4.0.5.0,28,blackindirect,6,18,937,minus1,0,b12.bmp,Judgeindirect,blacksquare2.gif,pic34.bmp,Mask.bmp,0120116,10:44:45,4.0.5.0,28,neutral,6,19,1794,plus2,0,GREY.bmp,Judgeindirect,blacksquare2.gif,pic22.bmp,Mask.bmp,0120116,10:44:45,4.0.5.0,28,neutral,6,20,1397,plus2,0,GREY.bmp,Judgeindirect,blacksquare2.gif,pic38.bmp,Mask.bmp,0120116,10:44:45,4.0.5.0,28,neutral,6,21,1495,plus1,0,GREY.bmp,Judgeindirect,blacksquare2.gif,pic52.bmp,Mask.bmp,0120116,10:44:45,4.0.5.0,28,neutral,6,22,1829,plus2,0,GREY.bmp,Judgeindirect,blacksquare2.gif,pic14.bmp,Mask.bmp,0120116,10:44:45,4.0.5.0,28,neutral,6,23,1094,minus1,0,GREY.bmp,Judgeindirect,blacksquare2.gif,pic68.bmp,Mask.bmp,0120116,10:44:45,4.0.5.0,28,blackindirect,6,24,1979,minus1,0,b03.bmp,Judgeindirect,blacksquare2.gif,pic13.bmp,Mask.bmp,0120116,10:44:45,4.0.5.0,28,blackindirect,6,25,1295,plus1,0,b08.bmp,Judgeindirect,blacksquare2.gif,pic31.bmp,Mask.bmp,0120116,10:44:45,4.0.5.0,28,blackindirect,6,26,2213,minus2,0,b10.bmp,Judgeindirect,blacksquare2.gif,pic67.bmp,Mask.bmp,0120116,10:44:45,4.0.5.0,28,whiteindirect,6,27,1577,minus2,0,w02.bmp,Judgeindirect,blacksquare2.gif,pic25.bmp,Mask.bmp,0120116,10:44:45,4.0.5.0,28,whiteindirect,6,28,724,minus2,0,w09.bmp,Judgeindirect,blacksquare2.gif,pic75.bmp,Mask.bmp,0120116,10:44:45,4.0.5.0,28,blackindirect,6,29,1406,minus1,0,b05.bmp,Judgeindirect,blacksquare2.gif,pic15.bmp,Mask.bmp,0120116,10:44:45,4.0.5.0,28,neutral,6,30,1207,plus2,0,GREY.bmp,Judgeindirect,blacksquare2.gif,pic17.bmp,Mask.bmp,0120116,10:44:45,4.0.5.0,28,blackindirect,6,31,1127,plus1,0,b02.bmp,Judgeindirect,blacksquare2.gif,pic37.bmp,Mask.bmp,0120116,10:44:45,4.0.5.0,28,blackindirect,6,32,1283,plus2,0,b09.bmp,Judgeindirect,blacksquare2.gif,pic58.bmp,Mask.bmp,0120116,10:44:45,4.0.5.0,28,blackindirect,6,33,1512,plus2,0,b01.bmp,Judgeindirect,blacksquare2.gif,pic23.bmp,Mask.bmp,0120116,10:44:45,4.0.5.0,28,neutral,6,34,861,plus2,0,GREY.bmp,Judgeindirect,blacksquare2.gif,pic33.bmp,Mask.bmp,0120116,10:44:45,4.0.5.0,28,neutral,6,35,1290,plus1,0,GREY.bmp,Judgeindirect,blacksquare2.gif,pic36.bmp,Mask.bmp,0120116,10:44:45,4.0.5.0,28,blackindirect,6,36,1903,minus1,0,b07.bmp,Judgeindirect,blacksquare2.gif,pic32.bmp,Mask.bmp,0120116,10:44:45,4.0.5.0,28,whiteindirect,6,37,767,minus1,0,w07.bmp,Judgeindirect,blacksquare2.gif,pic8.bmp,Mask.bmp,0120116,10:44:45,4.0.5.0,28,whiteindirect,6,38,1919,minus1,0,w05.bmp,Judgeindirect,blacksquare2.gif,pic57.bmp,Mask.bmp,0120116,10:44:45,4.0.5.0,28,blackindirect,6,39,1597,plus1,0,b11.bmp,Judgeindirect,blacksquare2.gif,pic71.bmp,Mask.bmp,0120116,10:44:45,4.0.5.0,28,blackindirect,6,40,1559,plus2,0,b06.bmp,Judgeindirect,blacksquare2.gif,pic1.bmp,Mask.bmp,0120116,10:44:45,4.0.5.0,28,blackindirect,6,41,1587,plus1,0,b10.bmp,Judgeindirect,blacksquare2.gif,pic7.bmp,Mask.bmp,0120116,10:44:45,4.0.5.0,28,blackindirect,6,42,1126,minus1,0,b01.bmp,Judgeindirect,blacksquare2.gif,pic2.bmp,Mask.bmp,0120116,10:44:45,4.0.5.0,28,neutral,6,43,1057,plus1,0,GREY.bmp,Judgeindirect,blacksquare2.gif,pic45.bmp,Mask.bmp,0120116,10:44:45,4.0.5.0,28,whiteindirect,6,44,1407,plus1,0,b10.jpg,Judgeindirect,blacksquare2.gif,pic10.bmp,Mask.bmp,0120116,10:44:45,4.0.5.0,28,whiteindirect,6,45,688,plus1,0,w02.bmp,Judgeindirect,blacksquare2.gif,pic18.bmp,Mask.bmp,0120116,10:44:45,4.0.5.0,28,blackindirect,6,46,1403,plus2,0,b08.bmp,Judgeindirect,blacksquare2.gif,pic65.bmp,Mask.bmp,0120116,10:44:45,4.0.5.0,28,blackindirect,6,47,1180,plus2,0,b07.bmp,Judgeindirect,blacksquare2.gif,pic40.bmp,Mask.bmp,0120116,10:44:45,4.0.5.0,28,neutral,6,48,2101,plus2,0,GREY.bmp,Judgeindirect,blacksquare2.gif,pic69.bmp,Mask.bmp,0120116,10:44:45,4.0.5.0,28,neutral,6,49,1206,plus2,0,GREY.bmp,Judgeindirect,blacksquare2.gif,pic29.bmp,Mask.bmp,0120116,10:44:45,4.0.5.0,28,blackindirect,6,50,1174,plus1,0,b05.bmp,Judgeindirect,blacksquare2.gif,pic60.bmp,Mask.bmp,0120116,10:44:45,4.0.5.0,28,neutral,6,51,1272,plus1,0,GREY.bmp,Judgeindirect,blacksquare2.gif,pic19.bmp,Mask.bmp,0120116,10:44:45,4.0.5.0,28,whiteindirect,6,52,1550,minus1,0,b11.jpg,Judgeindirect,blacksquare2.gif,pic3.bmp,Mask.bmp,0120116,10:44:45,4.0.5.0,28,whiteindirect,6,53,1289,plus1,0,w05.bmp,Judgeindirect,blacksquare2.gif,pic27.bmp,Mask.bmp,0120116,10:44:45,4.0.5.0,28,whiteindirect,6,54,1591,plus2,0,b10.jpg,Judgeindirect,blacksquare2.gif,pic16.bmp,Mask.bmp,0120116,10:44:45,4.0.5.0,28,whiteindirect,6,55,674,plus2,0,w04.bmp,Judgeindirect,blacksquare2.gif,pic48.bmp,Mask.bmp,0120116,10:44:45,4.0.5.0,28,whiteindirect,6,56,1405,plus1,0,w08.bmp,Judgeindirect,blacksquare2.gif,pic47.bmp,Mask.bmp,0120116,10:44:45,4.0.5.0,28,blackindirect,6,57,1414,minus1,0,b11.bmp,Judgeindirect,blacksquare2.gif,pic50.bmp,Mask.bmp,0120116,10:44:45,4.0.5.0,28,blackindirect,6,58,2551,plus1,0,b03.bmp,Judgeindirect,blacksquare2.gif,pic72.bmp,Mask.bmp,0120116,10:44:45,4.0.5.0,28,whiteindirect,6,59,1335,plus2,0,w09.bmp,Judgeindirect,blacksquare2.gif,pic9.bmp,Mask.bmp,0120116,10:44:45,4.0.5.0,28,whiteindirect,6,60,1418,minus2,0,w01.bmp,Judgeindirect,blacksquare2.gif,pic44.bmp,Mask.bmp,0120116,10:44:45,4.0.5.0,28,blackindirect,6,61,1571,minus2,0,b09.bmp,Judgeindirect,blacksquare2.gif,pic5.bmp,Mask.bmp,0120116,10:44:45,4.0.5.0,28,blackindirect,6,62,1606,minus1,0,b06.bmp,Judgeindirect,blacksquare2.gif,pic49.bmp,Mask.bmp,0120116,10:44:45,4.0.5.0,28,whiteindirect,6,63,1608,minus1,0,b12.jpg,Judgeindirect,blacksquare2.gif,pic20.bmp,Mask.bmp,0120116,10:44:45,4.0.5.0,28,neutral,6,64,1010,plus2,0,GREY.bmp,Judgeindirect,blacksquare2.gif,pic41.bmp,Mask.bmp,0120116,10:44:45,4.0.5.0,28,whiteindirect,6,65,2026,plus2,0,w06.bmp,Judgeindirect,blacksquare2.gif,pic61.bmp,Mask.bmp,0120116,10:44:45,4.0.5.0,28,neutral,6,66,1573,plus1,0,GREY.bmp,Judgeindirect,blacksquare2.gif,pic51.bmp,Mask.bmp,0120116,10:44:45,4.0.5.0,28,neutral,6,67,1416,plus2,0,GREY.bmp,Judgeindirect,blacksquare2.gif,pic55.bmp,Mask.bmp,0120116,10:44:45,4.0.5.0,28,whiteindirect,6,68,968,plus2,0,w07.bmp,Judgeindirect,blacksquare2.gif,pic73.bmp,Mask.bmp,0120116,10:44:45,4.0.5.0,28,blackindirect,6,69,1729,minus2,0,b04.bmp,Judgeindirect,blacksquare2.gif,pic56.bmp,Mask.bmp,0120116,10:44:45,4.0.5.0,28,blackindirect,6,70,1350,plus2,0,b02.bmp,Judgeindirect,blacksquare2.gif,pic39.bmp,Mask.bmp,0120116,10:44:45,4.0.5.0,28,blackindirect,6,71,761,plus2,0,b12.bmp,Judgeindirect,blacksquare2.gif,pic30.bmp,Mask.bmp,0120116,10:44:45,4.0.5.0,28,whiteindirect,6,72,842,plus2,0,w03.bmp,Judgeindirect,blacksquare2.gif,pic59.bmp,Mask.bmp,0120116,10:44:45,4.0.5.0,28,sesso,7,1,11084,2,1,0,demo,0,0,0,0120116,10:44:45,4.0.5.0,28,anni,7,1,11084,21,1,0,demo,0,0,0,0120116,10:44:45,4.0.5.0,28,etnia,7,1,11084,Caucasico,1,0,demo,0,0,0,0120116,11:02:48,4.0.5.0,30,practice,1,1,2337,57,1,sample.bmp,orient1,blacksquare2.gif,pic76.bmp,Mask.bmp,0120116,11:02:48,4.0.5.0,30,whiteindirect,4,1,5812,plus1,0,w09.bmp,Judgeindirect,blacksquare2.gif,pic42.bmp,Mask.bmp,0120116,11:02:48,4.0.5.0,30,neutral,4,2,3830,plus1,0,GREY.bmp,Judgeindirect,blacksquare2.gif,pic7.bmp,Mask.bmp,0120116,11:02:48,4.0.5.0,30,neutral,4,3,4128,plus2,0,GREY.bmp,Judgeindirect,blacksquare2.gif,pic70.bmp,Mask.bmp,0120116,11:02:48,4.0.5.0,30,whiteindirect,4,4,2463,plus1,0,b11.jpg,Judgeindirect,blacksquare2.gif,pic29.bmp,Mask.bmp,0120116,11:02:48,4.0.5.0,30,neutral,4,5,3746,plus1,0,GREY.bmp,Judgeindirect,blacksquare2.gif,pic31.bmp,Mask.bmp,0120116,11:02:48,4.0.5.0,30,neutral,4,6,2351,plus2,0,GREY.bmp,Judgeindirect,blacksquare2.gif,pic11.bmp,Mask.bmp,0120116,11:02:48,4.0.5.0,30,whiteindirect,4,7,1294,plus1,0,w03.bmp,Judgeindirect,blacksquare2.gif,pic33.bmp,Mask.bmp,0120116,11:02:48,4.0.5.0,30,blackindirect,4,8,1060,plus2,0,b10.bmp,Judgeindirect,blacksquare2.gif,pic57.bmp,Mask.bmp,0120116,11:02:48,4.0.5.0,30,blackindirect,4,9,3130,minus1,0,b03.bmp,Judgeindirect,blacksquare2.gif,pic28.bmp,Mask.bmp,0120116,11:02:48,4.0.5.0,30,whiteindirect,4,10,1013,plus1,0,w08.bmp,Judgeindirect,blacksquare2.gif,pic5.bmp,Mask.bmp,0120116,11:02:48,4.0.5.0,30,whiteindirect,4,11,2100,plus1,0,w05.bmp,Judgeindirect,blacksquare2.gif,pic3.bmp,Mask.bmp,0120116,11:02:48,4.0.5.0,30,neutral,4,12,2068,plus1,0,GREY.bmp,Judgeindirect,blacksquare2.gif,pic44.bmp,Mask.bmp,0120116,11:02:48,4.0.5.0,30,whiteindirect,4,13,1318,plus2,0,w07.bmp,Judgeindirect,blacksquare2.gif,pic72.bmp,Mask.bmp,0120116,11:02:48,4.0.5.0,30,neutral,4,14,1042,plus1,0,GREY.bmp,Judgeindirect,blacksquare2.gif,pic56.bmp,Mask.bmp,0120116,11:02:48,4.0.5.0,30,blackindirect,4,15,1872,plus1,0,b07.bmp,Judgeindirect,blacksquare2.gif,pic47.bmp,Mask.bmp,0120116,11:02:48,4.0.5.0,30,blackindirect,4,16,2065,plus1,0,b04.bmp,Judgeindirect,blacksquare2.gif,pic22.bmp,Mask.bmp,0120116,11:02:48,4.0.5.0,30,whiteindirect,4,17,1970,minus1,0,w04.bmp,Judgeindirect,blacksquare2.gif,pic39.bmp,Mask.bmp,0120116,11:02:48,4.0.5.0,30,blackindirect,4,18,1399,plus1,0,b01.bmp,Judgeindirect,blacksquare2.gif,pic8.bmp,Mask.bmp,0120116,11:02:48,4.0.5.0,30,blackindirect,4,19,992,minus1,0,b09.bmp,Judgeindirect,blacksquare2.gif,pic16.bmp,Mask.bmp,0120116,11:02:48,4.0.5.0,30,whiteindirect,4,20,1304,minus2,0,b10.jpg,Judgeindirect,blacksquare2.gif,pic61.bmp,Mask.bmp,0120116,11:02:48,4.0.5.0,30,blackindirect,4,21,1941,minus1,0,b12.bmp,Judgeindirect,blacksquare2.gif,pic13.bmp,Mask.bmp,0120116,11:02:48,4.0.5.0,30,whiteindirect,4,22,1011,plus1,0,w06.bmp,Judgeindirect,blacksquare2.gif,pic59.bmp,Mask.bmp,0120116,11:02:48,4.0.5.0,30,neutral,4,23,987,plus1,0,GREY.bmp,Judgeindirect,blacksquare2.gif,pic18.bmp,Mask.bmp,0120116,11:02:48,4.0.5.0,30,blackindirect,4,24,2131,minus1,0,b08.bmp,Judgeindirect,blacksquare2.gif,pic74.bmp,Mask.bmp,0120116,11:02:48,4.0.5.0,30,neutral,4,25,1506,plus1,0,GREY.bmp,Judgeindirect,blacksquare2.gif,pic73.bmp,Mask.bmp,0120116,11:02:48,4.0.5.0,30,neutral,4,26,2455,minus1,0,GREY.bmp,Judgeindirect,blacksquare2.gif,pic66.bmp,Mask.bmp,0120116,11:02:48,4.0.5.0,30,blackindirect,4,27,2819,plus1,0,b11.bmp,Judgeindirect,blacksquare2.gif,pic36.bmp,Mask.bmp,0120116,11:02:48,4.0.5.0,30,neutral,4,28,3049,plus1,0,GREY.bmp,Judgeindirect,blacksquare2.gif,pic58.bmp,Mask.bmp,0120116,11:02:48,4.0.5.0,30,blackindirect,4,29,1007,plus1,0,b05.bmp,Judgeindirect,blacksquare2.gif,pic21.bmp,Mask.bmp,0120116,11:02:48,4.0.5.0,30,neutral,4,30,1615,plus2,0,GREY.bmp,Judgeindirect,blacksquare2.gif,pic38.bmp,Mask.bmp,0120116,11:02:48,4.0.5.0,30,blackindirect,4,31,1072,plus1,0,b06.bmp,Judgeindirect,blacksquare2.gif,pic32.bmp,Mask.bmp,0120116,11:02:48,4.0.5.0,30,neutral,4,32,782,plus1,0,GREY.bmp,Judgeindirect,blacksquare2.gif,pic52.bmp,Mask.bmp,0120116,11:02:48,4.0.5.0,30,blackindirect,4,33,1413,minus1,0,b02.bmp,Judgeindirect,blacksquare2.gif,pic12.bmp,Mask.bmp,0120116,11:02:48,4.0.5.0,30,whiteindirect,4,34,1598,plus1,0,w01.bmp,Judgeindirect,blacksquare2.gif,pic17.bmp,Mask.bmp,0120116,11:02:48,4.0.5.0,30,whiteindirect,4,35,1488,plus1,0,b12.jpg,Judgeindirect,blacksquare2.gif,pic10.bmp,Mask.bmp,0120116,11:02:48,4.0.5.0,30,neutral,4,36,1350,plus1,0,GREY.bmp,Judgeindirect,blacksquare2.gif,pic19.bmp,Mask.bmp,0120116,11:02:48,4.0.5.0,30,blackindirect,4,37,2281,plus2,0,b05.bmp,Judgeindirect,blacksquare2.gif,pic46.bmp,Mask.bmp,0120116,11:02:48,4.0.5.0,30,neutral,4,38,1066,plus2,0,GREY.bmp,Judgeindirect,blacksquare2.gif,pic34.bmp,Mask.bmp,0120116,11:02:48,4.0.5.0,30,whiteindirect,4,39,944,plus1,0,w02.bmp,Judgeindirect,blacksquare2.gif,pic26.bmp,Mask.bmp,0120116,11:02:48,4.0.5.0,30,whiteindirect,4,40,1265,plus2,0,w07.bmp,Judgeindirect,blacksquare2.gif,pic6.bmp,Mask.bmp,0120116,11:02:48,4.0.5.0,30,neutral,4,41,1791,plus1,0,GREY.bmp,Judgeindirect,blacksquare2.gif,pic1.bmp,Mask.bmp,0120116,11:02:48,4.0.5.0,30,whiteindirect,4,42,827,plus1,0,w02.bmp,Judgeindirect,blacksquare2.gif,pic48.bmp,Mask.bmp,0120116,11:02:48,4.0.5.0,30,neutral,4,43,1393,minus1,0,GREY.bmp,Judgeindirect,blacksquare2.gif,pic23.bmp,Mask.bmp,0120116,11:02:48,4.0.5.0,30,blackindirect,4,44,1155,plus1,0,b11.bmp,Judgeindirect,blacksquare2.gif,pic50.bmp,Mask.bmp,0120116,11:02:48,4.0.5.0,30,neutral,4,45,941,plus1,0,GREY.bmp,Judgeindirect,blacksquare2.gif,pic69.bmp,Mask.bmp,0120116,11:02:48,4.0.5.0,30,whiteindirect,4,46,2423,plus2,0,w01.bmp,Judgeindirect,blacksquare2.gif,pic15.bmp,Mask.bmp,0120116,11:02:48,4.0.5.0,30,blackindirect,4,47,2388,plus1,0,b10.bmp,Judgeindirect,blacksquare2.gif,pic60.bmp,Mask.bmp,0120116,11:02:48,4.0.5.0,30,neutral,4,48,1594,plus1,0,GREY.bmp,Judgeindirect,blacksquare2.gif,pic25.bmp,Mask.bmp,0120116,11:02:48,4.0.5.0,30,blackindirect,4,49,1068,plus2,0,b07.bmp,Judgeindirect,blacksquare2.gif,pic64.bmp,Mask.bmp,0120116,11:02:48,4.0.5.0,30,blackindirect,4,50,921,plus1,0,b02.bmp,Judgeindirect,blacksquare2.gif,pic67.bmp,Mask.bmp,0120116,11:02:48,4.0.5.0,30,neutral,4,51,1252,plus1,0,GREY.bmp,Judgeindirect,blacksquare2.gif,pic63.bmp,Mask.bmp,0120116,11:02:48,4.0.5.0,30,whiteindirect,4,52,1442,minus1,0,w09.bmp,Judgeindirect,blacksquare2.gif,pic4.bmp,Mask.bmp,0120116,11:02:48,4.0.5.0,30,blackindirect,4,53,1682,minus1,0,b08.bmp,Judgeindirect,blacksquare2.gif,pic30.bmp,Mask.bmp,0120116,11:02:48,4.0.5.0,30,neutral,4,54,793,minus1,0,GREY.bmp,Judgeindirect,blacksquare2.gif,pic51.bmp,Mask.bmp,0120116,11:02:48,4.0.5.0,30,blackindirect,4,55,1809,plus1,0,b01.bmp,Judgeindirect,blacksquare2.gif,pic45.bmp,Mask.bmp,0120116,11:02:48,4.0.5.0,30,whiteindirect,4,56,796,plus1,0,w06.bmp,Judgeindirect,blacksquare2.gif,pic43.bmp,Mask.bmp,0120116,11:02:48,4.0.5.0,30,blackindirect,4,57,1235,plus2,0,b03.bmp,Judgeindirect,blacksquare2.gif,pic24.bmp,Mask.bmp,0120116,11:02:48,4.0.5.0,30,neutral,4,58,1074,plus2,0,GREY.bmp,Judgeindirect,blacksquare2.gif,pic14.bmp,Mask.bmp,0120116,11:02:48,4.0.5.0,30,blackindirect,4,59,783,plus1,0,b12.bmp,Judgeindirect,blacksquare2.gif,pic71.bmp,Mask.bmp,0120116,11:02:48,4.0.5.0,30,whiteindirect,4,60,1759,plus2,0,w05.bmp,Judgeindirect,blacksquare2.gif,pic55.bmp,Mask.bmp,0120116,11:02:48,4.0.5.0,30,neutral,4,61,875,plus1,0,GREY.bmp,Judgeindirect,blacksquare2.gif,pic40.bmp,Mask.bmp,0120116,11:02:48,4.0.5.0,30,whiteindirect,4,62,2120,minus1,0,w04.bmp,Judgeindirect,blacksquare2.gif,pic37.bmp,Mask.bmp,0120116,11:02:48,4.0.5.0,30,whiteindirect,4,63,1215,plus1,0,b11.jpg,Judgeindirect,blacksquare2.gif,pic20.bmp,Mask.bmp,0120116,11:02:48,4.0.5.0,30,whiteindirect,4,64,895,minus2,0,b12.jpg,Judgeindirect,blacksquare2.gif,pic68.bmp,Mask.bmp,0120116,11:02:48,4.0.5.0,30,neutral,4,65,1611,minus1,0,GREY.bmp,Judgeindirect,blacksquare2.gif,pic27.bmp,Mask.bmp,0120116,11:02:48,4.0.5.0,30,whiteindirect,4,66,1780,plus2,0,w08.bmp,Judgeindirect,blacksquare2.gif,pic41.bmp,Mask.bmp,0120116,11:02:48,4.0.5.0,30,blackindirect,4,67,952,plus1,0,b06.bmp,Judgeindirect,blacksquare2.gif,pic65.bmp,Mask.bmp,0120116,11:02:48,4.0.5.0,30,neutral,4,68,889,plus1,0,GREY.bmp,Judgeindirect,blacksquare2.gif,pic53.bmp,Mask.bmp,0120116,11:02:48,4.0.5.0,30,whiteindirect,4,69,1053,minus1,0,b10.jpg,Judgeindirect,blacksquare2.gif,pic75.bmp,Mask.bmp,0120116,11:02:48,4.0.5.0,30,blackindirect,4,70,962,plus1,0,b09.bmp,Judgeindirect,blacksquare2.gif,pic2.bmp,Mask.bmp,0120116,11:02:48,4.0.5.0,30,whiteindirect,4,71,1508,plus1,0,w03.bmp,Judgeindirect,blacksquare2.gif,pic49.bmp,Mask.bmp,0120116,11:02:48,4.0.5.0,30,blackindirect,4,72,1089,plus2,0,b04.bmp,Judgeindirect,blacksquare2.gif,pic54.bmp,Mask.bmp,0120116,11:02:48,4.0.5.0,30,whitedirect,6,1,1798,plus1,0,w08.bmp,Judgedirect,blacksquare2.gif,pic108.bmp,Mask.bmp,0120116,11:02:48,4.0.5.0,30,blackdirect,6,2,1361,plus1,0,b11.bmp,Judgedirect,blacksquare2.gif,pic82.bmp,Mask.bmp,0120116,11:02:48,4.0.5.0,30,whitedirect,6,3,812,plus2,0,w03.bmp,Judgedirect,blacksquare2.gif,pic78.bmp,Mask.bmp,0120116,11:02:48,4.0.5.0,30,blackdirect,6,4,875,plus1,0,b12.bmp,Judgedirect,blacksquare2.gif,pic81.bmp,Mask.bmp,0120116,11:02:48,4.0.5.0,30,whitedirect,6,5,903,minus1,0,w02.bmp,Judgedirect,blacksquare2.gif,pic79.bmp,Mask.bmp,0120116,11:02:48,4.0.5.0,30,blackdirect,6,6,954,plus1,0,b04.bmp,Judgedirect,blacksquare2.gif,pic102.bmp,Mask.bmp,0120116,11:02:48,4.0.5.0,30,whitedirect,6,7,1676,plus1,0,w04.bmp,Judgedirect,blacksquare2.gif,pic117.bmp,Mask.bmp,0120116,11:02:48,4.0.5.0,30,blackdirect,6,8,996,minus1,0,b02.bmp,Judgedirect,blacksquare2.gif,pic116.bmp,Mask.bmp,0120116,11:02:48,4.0.5.0,30,whitedirect,6,9,1395,plus1,0,w07.bmp,Judgedirect,blacksquare2.gif,pic113.bmp,Mask.bmp,0120116,11:02:48,4.0.5.0,30,blackdirect,6,10,748,plus1,0,b09.bmp,Judgedirect,blacksquare2.gif,pic106.bmp,Mask.bmp,0120116,11:02:48,4.0.5.0,30,whitedirect,6,11,1053,minus1,0,b11.jpg,Judgedirect,blacksquare2.gif,pic114.bmp,Mask.bmp,0120116,11:02:48,4.0.5.0,30,blackdirect,6,12,1683,plus1,0,b07.bmp,Judgedirect,blacksquare2.gif,pic118.bmp,Mask.bmp,0120116,11:02:48,4.0.5.0,30,whitedirect,6,13,1538,minus2,0,w05.bmp,Judgedirect,blacksquare2.gif,pic105.bmp,Mask.bmp,0120116,11:02:48,4.0.5.0,30,blackdirect,6,14,1150,minus1,0,b06.bmp,Judgedirect,blacksquare2.gif,pic110.bmp,Mask.bmp,0120116,11:02:48,4.0.5.0,30,whitedirect,6,15,1392,plus1,0,b10.jpg,Judgedirect,blacksquare2.gif,pic109.bmp,Mask.bmp,0120116,11:02:48,4.0.5.0,30,blackdirect,6,16,1338,minus1,0,b08.bmp,Judgedirect,blacksquare2.gif,pic101.bmp,Mask.bmp,0120116,11:02:48,4.0.5.0,30,whitedirect,6,17,1518,plus1,0,w06.bmp,Judgedirect,blacksquare2.gif,pic112.bmp,Mask.bmp,0120116,11:02:48,4.0.5.0,30,blackdirect,6,18,923,plus2,0,b10.bmp,Judgedirect,blacksquare2.gif,pic111.bmp,Mask.bmp,0120116,11:02:48,4.0.5.0,30,whitedirect,6,19,1021,plus1,0,b12.jpg,Judgedirect,blacksquare2.gif,pic100.bmp,Mask.bmp,0120116,11:02:48,4.0.5.0,30,blackdirect,6,20,1588,minus2,0,b01.bmp,Judgedirect,blacksquare2.gif,pic104.bmp,Mask.bmp,0120116,11:02:48,4.0.5.0,30,whitedirect,6,21,2151,minus1,0,w01.bmp,Judgedirect,blacksquare2.gif,pic115.bmp,Mask.bmp,0120116,11:02:48,4.0.5.0,30,blackdirect,6,22,589,minus1,0,b03.bmp,Judgedirect,blacksquare2.gif,pic80.bmp,Mask.bmp,0120116,11:02:48,4.0.5.0,30,whitedirect,6,23,836,plus1,0,w09.bmp,Judgedirect,blacksquare2.gif,pic107.bmp,Mask.bmp,0120116,11:02:48,4.0.5.0,30,blackdirect,6,24,634,plus1,0,b05.bmp,Judgedirect,blacksquare2.gif,pic103.bmp,Mask.bmp,0120116,11:02:48,4.0.5.0,30,sesso,7,1,26268,2,1,0,demo,0,0,0,0120116,11:02:48,4.0.5.0,30,anni,7,1,26268,19,1,0,demo,0,0,0,0120116,11:02:48,4.0.5.0,30,etnia,7,1,26268,Caucasico,1,0,demo,0,0,0,0120116,11:21:13,4.0.5.0,32,practice,1,1,7068,57,1,sample.bmp,orient1,blacksquare2.gif,pic76.bmp,Mask.bmp,0120116,11:21:13,4.0.5.0,32,whitedirect,4,1,3849,plus1,0,b11.jpg,Judgedirect,blacksquare2.gif,pic78.bmp,Mask.bmp,0120116,11:21:13,4.0.5.0,32,blackdirect,4,2,5419,plus1,0,b07.bmp,Judgedirect,blacksquare2.gif,pic113.bmp,Mask.bmp,0120116,11:21:13,4.0.5.0,32,whitedirect,4,3,1899,minus1,0,b12.jpg,Judgedirect,blacksquare2.gif,pic109.bmp,Mask.bmp,0120116,11:21:13,4.0.5.0,32,blackdirect,4,4,3498,plus1,0,b06.bmp,Judgedirect,blacksquare2.gif,pic101.bmp,Mask.bmp,0120116,11:21:13,4.0.5.0,32,whitedirect,4,5,872,plus1,0,w04.bmp,Judgedirect,blacksquare2.gif,pic112.bmp,Mask.bmp,0120116,11:21:13,4.0.5.0,32,blackdirect,4,6,4669,plus1,0,b08.bmp,Judgedirect,blacksquare2.gif,pic81.bmp,Mask.bmp,0120116,11:21:13,4.0.5.0,32,whitedirect,4,7,2256,plus2,0,w06.bmp,Judgedirect,blacksquare2.gif,pic103.bmp,Mask.bmp,0120116,11:21:13,4.0.5.0,32,blackdirect,4,8,2563,plus1,0,b12.bmp,Judgedirect,blacksquare2.gif,pic114.bmp,Mask.bmp,0120116,11:21:13,4.0.5.0,32,whitedirect,4,9,906,plus1,0,w09.bmp,Judgedirect,blacksquare2.gif,pic106.bmp,Mask.bmp,0120116,11:21:13,4.0.5.0,32,blackdirect,4,10,1277,minus1,0,b04.bmp,Judgedirect,blacksquare2.gif,pic117.bmp,Mask.bmp,0120116,11:21:13,4.0.5.0,32,whitedirect,4,11,2859,plus1,0,w05.bmp,Judgedirect,blacksquare2.gif,pic104.bmp,Mask.bmp,0120116,11:21:13,4.0.5.0,32,blackdirect,4,12,1272,plus1,0,b11.bmp,Judgedirect,blacksquare2.gif,pic107.bmp,Mask.bmp,0120116,11:21:13,4.0.5.0,32,whitedirect,4,13,430,plus1,0,w03.bmp,Judgedirect,blacksquare2.gif,pic118.bmp,Mask.bmp,0120116,11:21:13,4.0.5.0,32,blackdirect,4,14,1906,plus2,0,b09.bmp,Judgedirect,blacksquare2.gif,pic102.bmp,Mask.bmp,0120116,11:21:13,4.0.5.0,32,whitedirect,4,15,1602,plus2,0,w08.bmp,Judgedirect,blacksquare2.gif,pic105.bmp,Mask.bmp,0120116,11:21:13,4.0.5.0,32,blackdirect,4,16,1556,plus1,0,b05.bmp,Judgedirect,blacksquare2.gif,pic115.bmp,Mask.bmp,0120116,11:21:13,4.0.5.0,32,whitedirect,4,17,1320,plus2,0,w01.bmp,Judgedirect,blacksquare2.gif,pic110.bmp,Mask.bmp,0120116,11:21:13,4.0.5.0,32,blackdirect,4,18,1420,minus1,0,b01.bmp,Judgedirect,blacksquare2.gif,pic111.bmp,Mask.bmp,0120116,11:21:13,4.0.5.0,32,whitedirect,4,19,1093,plus1,0,b10.jpg,Judgedirect,blacksquare2.gif,pic100.bmp,Mask.bmp,0120116,11:21:13,4.0.5.0,32,blackdirect,4,20,705,plus1,0,b10.bmp,Judgedirect,blacksquare2.gif,pic79.bmp,Mask.bmp,0120116,11:21:13,4.0.5.0,32,whitedirect,4,21,2379,plus1,0,w02.bmp,Judgedirect,blacksquare2.gif,pic108.bmp,Mask.bmp,0120116,11:21:13,4.0.5.0,32,blackdirect,4,22,1793,plus1,0,b02.bmp,Judgedirect,blacksquare2.gif,pic82.bmp,Mask.bmp,0120116,11:21:13,4.0.5.0,32,whitedirect,4,23,1821,plus1,0,w07.bmp,Judgedirect,blacksquare2.gif,pic116.bmp,Mask.bmp,0120116,11:21:13,4.0.5.0,32,blackdirect,4,24,975,plus1,0,b03.bmp,Judgedirect,blacksquare2.gif,pic80.bmp,Mask.bmp,0120116,11:21:13,4.0.5.0,32,whiteindirect,6,1,5073,plus1,0,w09.bmp,Judgeindirect,blacksquare2.gif,pic20.bmp,Mask.bmp,0120116,11:21:13,4.0.5.0,32,neutral,6,2,3806,plus1,0,GREY.bmp,Judgeindirect,blacksquare2.gif,pic41.bmp,Mask.bmp,0120116,11:21:13,4.0.5.0,32,neutral,6,3,2241,minus1,0,GREY.bmp,Judgeindirect,blacksquare2.gif,pic74.bmp,Mask.bmp,0120116,11:21:13,4.0.5.0,32,blackindirect,6,4,3932,minus1,0,b05.bmp,Judgeindirect,blacksquare2.gif,pic52.bmp,Mask.bmp,0120116,11:21:13,4.0.5.0,32,neutral,6,5,4874,plus1,0,GREY.bmp,Judgeindirect,blacksquare2.gif,pic5.bmp,Mask.bmp,0120116,11:21:13,4.0.5.0,32,blackindirect,6,6,2959,minus1,0,b01.bmp,Judgeindirect,blacksquare2.gif,pic64.bmp,Mask.bmp,0120116,11:21:13,4.0.5.0,32,whiteindirect,6,7,3400,plus1,0,w01.bmp,Judgeindirect,blacksquare2.gif,pic66.bmp,Mask.bmp,0120116,11:21:13,4.0.5.0,32,blackindirect,6,8,3209,plus1,0,b12.bmp,Judgeindirect,blacksquare2.gif,pic56.bmp,Mask.bmp,0120116,11:21:13,4.0.5.0,32,whiteindirect,6,9,5481,plus1,0,b12.jpg,Judgeindirect,blacksquare2.gif,pic44.bmp,Mask.bmp,0120116,11:21:13,4.0.5.0,32,blackindirect,6,10,1864,plus1,0,b10.bmp,Judgeindirect,blacksquare2.gif,pic14.bmp,Mask.bmp,0120116,11:21:13,4.0.5.0,32,neutral,6,11,3784,plus1,0,GREY.bmp,Judgeindirect,blacksquare2.gif,pic25.bmp,Mask.bmp,0120116,11:21:13,4.0.5.0,32,neutral,6,12,4468,minus1,0,GREY.bmp,Judgeindirect,blacksquare2.gif,pic21.bmp,Mask.bmp,0120116,11:21:13,4.0.5.0,32,neutral,6,13,2398,plus1,0,GREY.bmp,Judgeindirect,blacksquare2.gif,pic68.bmp,Mask.bmp,0120116,11:21:13,4.0.5.0,32,whiteindirect,6,14,6668,plus1,0,w05.bmp,Judgeindirect,blacksquare2.gif,pic63.bmp,Mask.bmp,0120116,11:21:13,4.0.5.0,32,blackindirect,6,15,5095,minus1,0,b04.bmp,Judgeindirect,blacksquare2.gif,pic1.bmp,Mask.bmp,0120116,11:21:13,4.0.5.0,32,blackindirect,6,16,1532,minus1,0,b06.bmp,Judgeindirect,blacksquare2.gif,pic23.bmp,Mask.bmp,0120116,11:21:13,4.0.5.0,32,whiteindirect,6,17,5936,minus1,0,w06.bmp,Judgeindirect,blacksquare2.gif,pic70.bmp,Mask.bmp,0120116,11:21:13,4.0.5.0,32,whiteindirect,6,18,1934,plus1,0,w02.bmp,Judgeindirect,blacksquare2.gif,pic8.bmp,Mask.bmp,0120116,11:21:13,4.0.5.0,32,neutral,6,19,4780,plus1,0,GREY.bmp,Judgeindirect,blacksquare2.gif,pic48.bmp,Mask.bmp,0120116,11:21:13,4.0.5.0,32,neutral,6,20,4380,plus1,0,GREY.bmp,Judgeindirect,blacksquare2.gif,pic36.bmp,Mask.bmp,0120116,11:21:13,4.0.5.0,32,blackindirect,6,21,3642,plus1,0,b02.bmp,Judgeindirect,blacksquare2.gif,pic34.bmp,Mask.bmp,0120116,11:21:13,4.0.5.0,32,neutral,6,22,3859,minus1,0,GREY.bmp,Judgeindirect,blacksquare2.gif,pic10.bmp,Mask.bmp,0120116,11:21:13,4.0.5.0,32,neutral,6,23,5324,plus1,0,GREY.bmp,Judgeindirect,blacksquare2.gif,pic51.bmp,Mask.bmp,0120116,11:21:13,4.0.5.0,32,neutral,6,24,1016,plus1,0,GREY.bmp,Judgeindirect,blacksquare2.gif,pic46.bmp,Mask.bmp,0120116,11:21:13,4.0.5.0,32,whiteindirect,6,25,2959,plus1,0,w07.bmp,Judgeindirect,blacksquare2.gif,pic24.bmp,Mask.bmp,0120116,11:21:13,4.0.5.0,32,neutral,6,26,1480,minus1,0,GREY.bmp,Judgeindirect,blacksquare2.gif,pic3.bmp,Mask.bmp,0120116,11:21:13,4.0.5.0,32,blackindirect,6,27,3462,minus1,0,b11.bmp,Judgeindirect,blacksquare2.gif,pic50.bmp,Mask.bmp,0120116,11:21:13,4.0.5.0,32,neutral,6,28,4253,minus1,0,GREY.bmp,Judgeindirect,blacksquare2.gif,pic7.bmp,Mask.bmp,0120116,11:21:13,4.0.5.0,32,whiteindirect,6,29,1344,minus1,0,b10.jpg,Judgeindirect,blacksquare2.gif,pic33.bmp,Mask.bmp,0120116,11:21:13,4.0.5.0,32,blackindirect,6,30,5115,minus1,0,b09.bmp,Judgeindirect,blacksquare2.gif,pic4.bmp,Mask.bmp,0120116,11:21:13,4.0.5.0,32,blackindirect,6,31,3110,minus1,0,b07.bmp,Judgeindirect,blacksquare2.gif,pic59.bmp,Mask.bmp,0120116,11:21:13,4.0.5.0,32,neutral,6,32,1354,plus1,0,GREY.bmp,Judgeindirect,blacksquare2.gif,pic22.bmp,Mask.bmp,0120116,11:21:13,4.0.5.0,32,neutral,6,33,6357,minus1,0,GREY.bmp,Judgeindirect,blacksquare2.gif,pic31.bmp,Mask.bmp,0120116,11:21:13,4.0.5.0,32,whiteindirect,6,34,3700,plus1,0,w08.bmp,Judgeindirect,blacksquare2.gif,pic47.bmp,Mask.bmp,0120116,11:21:13,4.0.5.0,32,blackindirect,6,35,2195,plus1,0,b03.bmp,Judgeindirect,blacksquare2.gif,pic42.bmp,Mask.bmp,0120116,11:21:13,4.0.5.0,32,blackindirect,6,36,3783,minus1,0,b08.bmp,Judgeindirect,blacksquare2.gif,pic73.bmp,Mask.bmp,0120116,11:21:13,4.0.5.0,32,whiteindirect,6,37,939,minus1,0,b11.jpg,Judgeindirect,blacksquare2.gif,pic45.bmp,Mask.bmp,0120116,11:21:13,4.0.5.0,32,neutral,6,38,2541,plus1,0,GREY.bmp,Judgeindirect,blacksquare2.gif,pic58.bmp,Mask.bmp,0120116,11:21:13,4.0.5.0,32,blackindirect,6,39,3213,minus1,0,b10.bmp,Judgeindirect,blacksquare2.gif,pic38.bmp,Mask.bmp,0120116,11:21:13,4.0.5.0,32,whiteindirect,6,40,1109,minus1,0,w04.bmp,Judgeindirect,blacksquare2.gif,pic67.bmp,Mask.bmp,0120116,11:21:13,4.0.5.0,32,blackindirect,6,41,2329,minus1,0,b08.bmp,Judgeindirect,blacksquare2.gif,pic26.bmp,Mask.bmp,0120116,11:21:13,4.0.5.0,32,blackindirect,6,42,4048,minus1,0,b09.bmp,Judgeindirect,blacksquare2.gif,pic55.bmp,Mask.bmp,0120116,11:21:13,4.0.5.0,32,neutral,6,43,1202,plus1,0,GREY.bmp,Judgeindirect,blacksquare2.gif,pic32.bmp,Mask.bmp,0120116,11:21:13,4.0.5.0,32,neutral,6,44,2971,plus1,0,GREY.bmp,Judgeindirect,blacksquare2.gif,pic65.bmp,Mask.bmp,0120116,11:21:13,4.0.5.0,32,blackindirect,6,45,4372,minus1,0,b06.bmp,Judgeindirect,blacksquare2.gif,pic13.bmp,Mask.bmp,0120116,11:21:13,4.0.5.0,32,whiteindirect,6,46,1570,plus1,0,w03.bmp,Judgeindirect,blacksquare2.gif,pic39.bmp,Mask.bmp,0120116,11:21:13,4.0.5.0,32,blackindirect,6,47,829,plus1,0,b07.bmp,Judgeindirect,blacksquare2.gif,pic9.bmp,Mask.bmp,0120116,11:21:13,4.0.5.0,32,neutral,6,48,1883,plus1,0,GREY.bmp,Judgeindirect,blacksquare2.gif,pic16.bmp,Mask.bmp,0120116,11:21:13,4.0.5.0,32,neutral,6,49,1579,plus2,0,GREY.bmp,Judgeindirect,blacksquare2.gif,pic72.bmp,Mask.bmp,0120116,11:21:13,4.0.5.0,32,whiteindirect,6,50,1134,plus1,0,w05.bmp,Judgeindirect,blacksquare2.gif,pic61.bmp,Mask.bmp,0120116,11:21:13,4.0.5.0,32,blackindirect,6,51,2177,plus1,0,b05.bmp,Judgeindirect,blacksquare2.gif,pic71.bmp,Mask.bmp,0120116,11:21:13,4.0.5.0,32,whiteindirect,6,52,1718,plus1,0,b12.jpg,Judgeindirect,blacksquare2.gif,pic28.bmp,Mask.bmp,0120116,11:21:13,4.0.5.0,32,whiteindirect,6,53,4860,plus1,0,w06.bmp,Judgeindirect,blacksquare2.gif,pic69.bmp,Mask.bmp,0120116,11:21:13,4.0.5.0,32,whiteindirect,6,54,817,plus1,0,w08.bmp,Judgeindirect,blacksquare2.gif,pic6.bmp,Mask.bmp,0120116,11:21:13,4.0.5.0,32,whiteindirect,6,55,1191,minus1,0,w09.bmp,Judgeindirect,blacksquare2.gif,pic37.bmp,Mask.bmp,0120116,11:21:13,4.0.5.0,32,blackindirect,6,56,3416,minus1,0,b01.bmp,Judgeindirect,blacksquare2.gif,pic75.bmp,Mask.bmp,0120116,11:21:13,4.0.5.0,32,neutral,6,57,2393,minus1,0,GREY.bmp,Judgeindirect,blacksquare2.gif,pic54.bmp,Mask.bmp,0120116,11:21:13,4.0.5.0,32,whiteindirect,6,58,2198,plus1,0,b10.jpg,Judgeindirect,blacksquare2.gif,pic27.bmp,Mask.bmp,0120116,11:21:13,4.0.5.0,32,blackindirect,6,59,1546,plus2,0,b12.bmp,Judgeindirect,blacksquare2.gif,pic17.bmp,Mask.bmp,0120116,11:21:13,4.0.5.0,32,blackindirect,6,60,2334,plus1,0,b02.bmp,Judgeindirect,blacksquare2.gif,pic11.bmp,Mask.bmp,0120116,11:21:13,4.0.5.0,32,whiteindirect,6,61,1486,plus1,0,w01.bmp,Judgeindirect,blacksquare2.gif,pic2.bmp,Mask.bmp,0120116,11:21:13,4.0.5.0,32,whiteindirect,6,62,1276,minus1,0,w03.bmp,Judgeindirect,blacksquare2.gif,pic62.bmp,Mask.bmp,0120116,11:21:13,4.0.5.0,32,neutral,6,63,1002,minus1,0,GREY.bmp,Judgeindirect,blacksquare2.gif,pic49.bmp,Mask.bmp,0120116,11:21:13,4.0.5.0,32,neutral,6,64,1162,plus1,0,GREY.bmp,Judgeindirect,blacksquare2.gif,pic29.bmp,Mask.bmp,0120116,11:21:13,4.0.5.0,32,whiteindirect,6,65,1388,minus1,0,w02.bmp,Judgeindirect,blacksquare2.gif,pic19.bmp,Mask.bmp,0120116,11:21:13,4.0.5.0,32,whiteindirect,6,66,1046,minus1,0,b11.jpg,Judgeindirect,blacksquare2.gif,pic12.bmp,Mask.bmp,0120116,11:21:13,4.0.5.0,32,blackindirect,6,67,2988,minus1,0,b11.bmp,Judgeindirect,blacksquare2.gif,pic57.bmp,Mask.bmp,0120116,11:21:13,4.0.5.0,32,blackindirect,6,68,773,minus1,0,b03.bmp,Judgeindirect,blacksquare2.gif,pic15.bmp,Mask.bmp,0120116,11:21:13,4.0.5.0,32,neutral,6,69,1773,minus1,0,GREY.bmp,Judgeindirect,blacksquare2.gif,pic40.bmp,Mask.bmp,0120116,11:21:13,4.0.5.0,32,whiteindirect,6,70,1793,minus1,0,w07.bmp,Judgeindirect,blacksquare2.gif,pic60.bmp,Mask.bmp,0120116,11:21:13,4.0.5.0,32,blackindirect,6,71,1476,plus1,0,b04.bmp,Judgeindirect,blacksquare2.gif,pic43.bmp,Mask.bmp,0120116,11:21:13,4.0.5.0,32,whiteindirect,6,72,1107,plus1,0,w04.bmp,Judgeindirect,blacksquare2.gif,pic30.bmp,Mask.bmp,0120116,11:21:13,4.0.5.0,32,sesso,7,1,10537,2,1,0,demo,0,0,0,0120116,11:21:13,4.0.5.0,32,anni,7,1,10537,20,1,0,demo,0,0,0,0120116,11:21:13,4.0.5.0,32,etnia,7,1,10537,Caucasico,1,0,demo,0,0,0,0120116,11:51:22,4.0.5.0,34,practice,1,1,5991,57,1,sample.bmp,orient1,blacksquare2.gif,pic76.bmp,Mask.bmp,0120116,11:51:22,4.0.5.0,34,whiteindirect,4,1,10237,plus1,0,w08.bmp,Judgeindirect,blacksquare2.gif,pic45.bmp,Mask.bmp,0120116,11:51:22,4.0.5.0,34,blackindirect,4,2,5713,plus1,0,b06.bmp,Judgeindirect,blacksquare2.gif,pic3.bmp,Mask.bmp,0120116,11:51:22,4.0.5.0,34,blackindirect,4,3,3263,minus1,0,b01.bmp,Judgeindirect,blacksquare2.gif,pic60.bmp,Mask.bmp,0120116,11:51:22,4.0.5.0,34,whiteindirect,4,4,4219,minus1,0,b10.jpg,Judgeindirect,blacksquare2.gif,pic15.bmp,Mask.bmp,0120116,11:51:22,4.0.5.0,34,neutral,4,5,4873,plus1,0,GREY.bmp,Judgeindirect,blacksquare2.gif,pic69.bmp,Mask.bmp,0120116,11:51:22,4.0.5.0,34,whiteindirect,4,6,4845,minus1,0,w04.bmp,Judgeindirect,blacksquare2.gif,pic13.bmp,Mask.bmp,0120116,11:51:22,4.0.5.0,34,whiteindirect,4,7,3564,minus1,0,w07.bmp,Judgeindirect,blacksquare2.gif,pic30.bmp,Mask.bmp,0120116,11:51:22,4.0.5.0,34,blackindirect,4,8,1997,minus1,0,b12.bmp,Judgeindirect,blacksquare2.gif,pic67.bmp,Mask.bmp,0120116,11:51:22,4.0.5.0,34,neutral,4,9,13846,plus1,0,GREY.bmp,Judgeindirect,blacksquare2.gif,pic23.bmp,Mask.bmp,0120116,11:51:22,4.0.5.0,34,blackindirect,4,10,3719,minus1,0,b09.bmp,Judgeindirect,blacksquare2.gif,pic73.bmp,Mask.bmp,0120116,11:51:22,4.0.5.0,34,whiteindirect,4,11,2253,plus1,0,w02.bmp,Judgeindirect,blacksquare2.gif,pic66.bmp,Mask.bmp,0120116,11:51:22,4.0.5.0,34,blackindirect,4,12,1264,minus1,0,b02.bmp,Judgeindirect,blacksquare2.gif,pic57.bmp,Mask.bmp,0120116,11:51:22,4.0.5.0,34,blackindirect,4,13,2462,minus1,0,b05.bmp,Judgeindirect,blacksquare2.gif,pic48.bmp,Mask.bmp,0120116,11:51:22,4.0.5.0,34,neutral,4,14,1729,plus1,0,GREY.bmp,Judgeindirect,blacksquare2.gif,pic54.bmp,Mask.bmp,0120116,11:51:22,4.0.5.0,34,neutral,4,15,694,plus1,0,GREY.bmp,Judgeindirect,blacksquare2.gif,pic9.bmp,Mask.bmp,0120116,11:51:22,4.0.5.0,34,whiteindirect,4,16,1857,minus1,0,w05.bmp,Judgeindirect,blacksquare2.gif,pic36.bmp,Mask.bmp,0120116,11:51:22,4.0.5.0,34,blackindirect,4,17,1850,minus2,0,b04.bmp,Judgeindirect,blacksquare2.gif,pic59.bmp,Mask.bmp,0120116,11:51:22,4.0.5.0,34,whiteindirect,4,18,939,minus2,0,b11.jpg,Judgeindirect,blacksquare2.gif,pic41.bmp,Mask.bmp,0120116,11:51:22,4.0.5.0,34,neutral,4,19,2349,plus1,0,GREY.bmp,Judgeindirect,blacksquare2.gif,pic72.bmp,Mask.bmp,0120116,11:51:22,4.0.5.0,34,whiteindirect,4,20,3164,minus1,0,w03.bmp,Judgeindirect,blacksquare2.gif,pic10.bmp,Mask.bmp,0120116,11:51:22,4.0.5.0,34,neutral,4,21,2038,plus1,0,GREY.bmp,Judgeindirect,blacksquare2.gif,pic20.bmp,Mask.bmp,0120116,11:51:22,4.0.5.0,34,blackindirect,4,22,1968,minus2,0,b07.bmp,Judgeindirect,blacksquare2.gif,pic29.bmp,Mask.bmp,0120116,11:51:22,4.0.5.0,34,neutral,4,23,2221,plus1,0,GREY.bmp,Judgeindirect,blacksquare2.gif,pic53.bmp,Mask.bmp,0120116,11:51:22,4.0.5.0,34,blackindirect,4,24,2697,plus1,0,b10.bmp,Judgeindirect,blacksquare2.gif,pic68.bmp,Mask.bmp,0120116,11:51:22,4.0.5.0,34,neutral,4,25,740,plus1,0,GREY.bmp,Judgeindirect,blacksquare2.gif,pic46.bmp,Mask.bmp,0120116,11:51:22,4.0.5.0,34,neutral,4,26,3077,plus1,0,GREY.bmp,Judgeindirect,blacksquare2.gif,pic62.bmp,Mask.bmp,0120116,11:51:22,4.0.5.0,34,blackindirect,4,27,2906,minus1,0,b11.bmp,Judgeindirect,blacksquare2.gif,pic22.bmp,Mask.bmp,0120116,11:51:22,4.0.5.0,34,blackindirect,4,28,4957,minus2,0,b03.bmp,Judgeindirect,blacksquare2.gif,pic47.bmp,Mask.bmp,0120116,11:51:22,4.0.5.0,34,neutral,4,29,1478,plus1,0,GREY.bmp,Judgeindirect,blacksquare2.gif,pic37.bmp,Mask.bmp,0120116,11:51:22,4.0.5.0,34,neutral,4,30,3205,plus1,0,GREY.bmp,Judgeindirect,blacksquare2.gif,pic34.bmp,Mask.bmp,0120116,11:51:22,4.0.5.0,34,blackindirect,4,31,2077,plus1,0,b08.bmp,Judgeindirect,blacksquare2.gif,pic31.bmp,Mask.bmp,0120116,11:51:22,4.0.5.0,34,blackindirect,4,32,1390,plus1,0,b01.bmp,Judgeindirect,blacksquare2.gif,pic38.bmp,Mask.bmp,0120116,11:51:22,4.0.5.0,34,whiteindirect,4,33,1223,minus1,0,b12.jpg,Judgeindirect,blacksquare2.gif,pic65.bmp,Mask.bmp,0120116,11:51:22,4.0.5.0,34,whiteindirect,4,34,1503,minus1,0,w09.bmp,Judgeindirect,blacksquare2.gif,pic51.bmp,Mask.bmp,0120116,11:51:22,4.0.5.0,34,whiteindirect,4,35,1045,plus1,0,w01.bmp,Judgeindirect,blacksquare2.gif,pic56.bmp,Mask.bmp,0120116,11:51:22,4.0.5.0,34,neutral,4,36,1267,plus1,0,GREY.bmp,Judgeindirect,blacksquare2.gif,pic64.bmp,Mask.bmp,0120116,11:51:22,4.0.5.0,34,whiteindirect,4,37,1417,plus2,0,w06.bmp,Judgeindirect,blacksquare2.gif,pic74.bmp,Mask.bmp,0120116,11:51:22,4.0.5.0,34,blackindirect,4,38,922,minus1,0,b08.bmp,Judgeindirect,blacksquare2.gif,pic5.bmp,Mask.bmp,0120116,11:51:22,4.0.5.0,34,whiteindirect,4,39,1540,plus1,0,w01.bmp,Judgeindirect,blacksquare2.gif,pic28.bmp,Mask.bmp,0120116,11:51:22,4.0.5.0,34,blackindirect,4,40,1513,minus1,0,b12.bmp,Judgeindirect,blacksquare2.gif,pic19.bmp,Mask.bmp,0120116,11:51:22,4.0.5.0,34,blackindirect,4,41,806,minus1,0,b02.bmp,Judgeindirect,blacksquare2.gif,pic21.bmp,Mask.bmp,0120116,11:51:22,4.0.5.0,34,neutral,4,42,2005,plus1,0,GREY.bmp,Judgeindirect,blacksquare2.gif,pic50.bmp,Mask.bmp,0120116,11:51:22,4.0.5.0,34,neutral,4,43,776,plus1,0,GREY.bmp,Judgeindirect,blacksquare2.gif,pic44.bmp,Mask.bmp,0120116,11:51:22,4.0.5.0,34,blackindirect,4,44,2944,minus1,0,b09.bmp,Judgeindirect,blacksquare2.gif,pic61.bmp,Mask.bmp,0120116,11:51:22,4.0.5.0,34,neutral,4,45,3346,minus1,0,GREY.bmp,Judgeindirect,blacksquare2.gif,pic18.bmp,Mask.bmp,0120116,11:51:22,4.0.5.0,34,whiteindirect,4,46,2221,plus1,0,w04.bmp,Judgeindirect,blacksquare2.gif,pic58.bmp,Mask.bmp,0120116,11:51:22,4.0.5.0,34,neutral,4,47,1417,plus1,0,GREY.bmp,Judgeindirect,blacksquare2.gif,pic43.bmp,Mask.bmp,0120116,11:51:22,4.0.5.0,34,neutral,4,48,538,plus1,0,GREY.bmp,Judgeindirect,blacksquare2.gif,pic17.bmp,Mask.bmp,0120116,11:51:22,4.0.5.0,34,neutral,4,49,1090,plus1,0,GREY.bmp,Judgeindirect,blacksquare2.gif,pic39.bmp,Mask.bmp,0120116,11:51:22,4.0.5.0,34,neutral,4,50,2471,plus1,0,GREY.bmp,Judgeindirect,blacksquare2.gif,pic2.bmp,Mask.bmp,0120116,11:51:22,4.0.5.0,34,whiteindirect,4,51,2601,plus1,0,w03.bmp,Judgeindirect,blacksquare2.gif,pic63.bmp,Mask.bmp,0120116,11:51:22,4.0.5.0,34,blackindirect,4,52,2224,plus1,0,b07.bmp,Judgeindirect,blacksquare2.gif,pic75.bmp,Mask.bmp,0120116,11:51:22,4.0.5.0,34,whiteindirect,4,53,1732,plus1,0,b10.jpg,Judgeindirect,blacksquare2.gif,pic12.bmp,Mask.bmp,0120116,11:51:22,4.0.5.0,34,whiteindirect,4,54,2145,minus1,0,b11.jpg,Judgeindirect,blacksquare2.gif,pic71.bmp,Mask.bmp,0120116,11:51:22,4.0.5.0,34,blackindirect,4,55,375,minus1,0,b11.bmp,Judgeindirect,blacksquare2.gif,pic49.bmp,Mask.bmp,0120116,11:51:22,4.0.5.0,34,whiteindirect,4,56,765,plus1,0,w07.bmp,Judgeindirect,blacksquare2.gif,pic55.bmp,Mask.bmp,0120116,11:51:22,4.0.5.0,34,blackindirect,4,57,1597,minus1,0,b10.bmp,Judgeindirect,blacksquare2.gif,pic70.bmp,Mask.bmp,0120116,11:51:22,4.0.5.0,34,whiteindirect,4,58,999,plus1,0,b12.jpg,Judgeindirect,blacksquare2.gif,pic32.bmp,Mask.bmp,0120116,11:51:22,4.0.5.0,34,neutral,4,59,3327,plus1,0,GREY.bmp,Judgeindirect,blacksquare2.gif,pic40.bmp,Mask.bmp,0120116,11:51:22,4.0.5.0,34,neutral,4,60,1219,plus1,0,GREY.bmp,Judgeindirect,blacksquare2.gif,pic4.bmp,Mask.bmp,0120116,11:51:22,4.0.5.0,34,whiteindirect,4,61,491,plus1,0,w09.bmp,Judgeindirect,blacksquare2.gif,pic6.bmp,Mask.bmp,0120116,11:51:22,4.0.5.0,34,neutral,4,62,413,plus1,0,GREY.bmp,Judgeindirect,blacksquare2.gif,pic7.bmp,Mask.bmp,0120116,11:51:22,4.0.5.0,34,neutral,4,63,1346,plus1,0,GREY.bmp,Judgeindirect,blacksquare2.gif,pic1.bmp,Mask.bmp,0120116,11:51:22,4.0.5.0,34,blackindirect,4,64,2197,plus1,0,b03.bmp,Judgeindirect,blacksquare2.gif,pic11.bmp,Mask.bmp,0120116,11:51:22,4.0.5.0,34,whiteindirect,4,65,650,plus1,0,w05.bmp,Judgeindirect,blacksquare2.gif,pic16.bmp,Mask.bmp,0120116,11:51:22,4.0.5.0,34,blackindirect,4,66,1182,minus1,0,b05.bmp,Judgeindirect,blacksquare2.gif,pic8.bmp,Mask.bmp,0120116,11:51:22,4.0.5.0,34,neutral,4,67,903,plus1,0,GREY.bmp,Judgeindirect,blacksquare2.gif,pic24.bmp,Mask.bmp,0120116,11:51:22,4.0.5.0,34,blackindirect,4,68,2154,minus1,0,b04.bmp,Judgeindirect,blacksquare2.gif,pic52.bmp,Mask.bmp,0120116,11:51:22,4.0.5.0,34,whiteindirect,4,69,624,plus1,0,w02.bmp,Judgeindirect,blacksquare2.gif,pic33.bmp,Mask.bmp,0120116,11:51:22,4.0.5.0,34,whiteindirect,4,70,301,plus1,0,w06.bmp,Judgeindirect,blacksquare2.gif,pic42.bmp,Mask.bmp,0120116,11:51:22,4.0.5.0,34,whiteindirect,4,71,798,plus1,0,w08.bmp,Judgeindirect,blacksquare2.gif,pic14.bmp,Mask.bmp,0120116,11:51:22,4.0.5.0,34,blackindirect,4,72,1029,plus1,0,b06.bmp,Judgeindirect,blacksquare2.gif,pic25.bmp,Mask.bmp,0120116,11:51:22,4.0.5.0,34,blackdirect,6,1,3114,plus1,0,b09.bmp,Judgedirect,blacksquare2.gif,pic103.bmp,Mask.bmp,0120116,11:51:22,4.0.5.0,34,whitedirect,6,2,1150,minus1,0,b12.jpg,Judgedirect,blacksquare2.gif,pic102.bmp,Mask.bmp,0120116,11:51:22,4.0.5.0,34,blackdirect,6,3,3456,minus1,0,b12.bmp,Judgedirect,blacksquare2.gif,pic111.bmp,Mask.bmp,0120116,11:51:22,4.0.5.0,34,whitedirect,6,4,671,plus1,0,w06.bmp,Judgedirect,blacksquare2.gif,pic80.bmp,Mask.bmp,0120116,11:51:22,4.0.5.0,34,blackdirect,6,5,731,minus1,0,b08.bmp,Judgedirect,blacksquare2.gif,pic113.bmp,Mask.bmp,0120116,11:51:22,4.0.5.0,34,whitedirect,6,6,1309,plus1,0,w07.bmp,Judgedirect,blacksquare2.gif,pic110.bmp,Mask.bmp,0120116,11:51:22,4.0.5.0,34,blackdirect,6,7,793,minus1,0,b05.bmp,Judgedirect,blacksquare2.gif,pic115.bmp,Mask.bmp,0120116,11:51:22,4.0.5.0,34,whitedirect,6,8,713,plus1,0,w01.bmp,Judgedirect,blacksquare2.gif,pic78.bmp,Mask.bmp,0120116,11:51:22,4.0.5.0,34,blackdirect,6,9,1235,minus1,0,b10.bmp,Judgedirect,blacksquare2.gif,pic79.bmp,Mask.bmp,0120116,11:51:22,4.0.5.0,34,whitedirect,6,10,682,minus1,0,b11.jpg,Judgedirect,blacksquare2.gif,pic101.bmp,Mask.bmp,0120116,11:51:22,4.0.5.0,34,blackdirect,6,11,613,minus1,0,b02.bmp,Judgedirect,blacksquare2.gif,pic109.bmp,Mask.bmp,0120116,11:51:22,4.0.5.0,34,whitedirect,6,12,539,plus1,0,w08.bmp,Judgedirect,blacksquare2.gif,pic108.bmp,Mask.bmp,0120116,11:51:22,4.0.5.0,34,blackdirect,6,13,347,plus1,0,b07.bmp,Judgedirect,blacksquare2.gif,pic114.bmp,Mask.bmp,0120116,11:51:22,4.0.5.0,34,whitedirect,6,14,291,plus1,0,w03.bmp,Judgedirect,blacksquare2.gif,pic117.bmp,Mask.bmp,0120116,11:51:22,4.0.5.0,34,blackdirect,6,15,1204,minus1,0,b11.bmp,Judgedirect,blacksquare2.gif,pic105.bmp,Mask.bmp,0120116,11:51:22,4.0.5.0,34,whitedirect,6,16,788,plus1,0,w09.bmp,Judgedirect,blacksquare2.gif,pic81.bmp,Mask.bmp,0120116,11:51:22,4.0.5.0,34,blackdirect,6,17,1500,minus1,0,b01.bmp,Judgedirect,blacksquare2.gif,pic82.bmp,Mask.bmp,0120116,11:51:22,4.0.5.0,34,whitedirect,6,18,3081,plus1,0,b10.jpg,Judgedirect,blacksquare2.gif,pic106.bmp,Mask.bmp,0120116,11:51:22,4.0.5.0,34,blackdirect,6,19,990,plus1,0,b04.bmp,Judgedirect,blacksquare2.gif,pic112.bmp,Mask.bmp,0120116,11:51:22,4.0.5.0,34,whitedirect,6,20,838,minus1,0,w02.bmp,Judgedirect,blacksquare2.gif,pic104.bmp,Mask.bmp,0120116,11:51:22,4.0.5.0,34,blackdirect,6,21,500,plus1,0,b06.bmp,Judgedirect,blacksquare2.gif,pic116.bmp,Mask.bmp,0120116,11:51:22,4.0.5.0,34,whitedirect,6,22,1861,plus1,0,w04.bmp,Judgedirect,blacksquare2.gif,pic100.bmp,Mask.bmp,0120116,11:51:22,4.0.5.0,34,blackdirect,6,23,1366,plus1,0,b03.bmp,Judgedirect,blacksquare2.gif,pic107.bmp,Mask.bmp,0120116,11:51:22,4.0.5.0,34,whitedirect,6,24,1712,plus1,0,w05.bmp,Judgedirect,blacksquare2.gif,pic118.bmp,Mask.bmp,0120116,11:51:22,4.0.5.0,34,sesso,7,1,11864,2,1,0,demo,0,0,0,0120116,11:51:22,4.0.5.0,34,anni,7,1,11864,19,1,0,demo,0,0,0,0120116,11:51:22,4.0.5.0,34,etnia,7,1,11864,Caucasico,1,0,demo,0,0,0,0120216,10:13:09,4.0.5.0,37,practice,1,1,4838,57,1,sample.bmp,orient1,blacksquare2.gif,pic76.bmp,Mask.bmp,0120216,10:13:09,4.0.5.0,37,whitedirect,4,1,4944,plus1,0,w03.bmp,Judgedirect,blacksquare2.gif,pic102.bmp,Mask.bmp,0120216,10:13:09,4.0.5.0,37,blackdirect,4,2,1962,plus1,0,b06.bmp,Judgedirect,blacksquare2.gif,pic79.bmp,Mask.bmp,0120216,10:13:09,4.0.5.0,37,whitedirect,4,3,1223,plus1,0,b12.jpg,Judgedirect,blacksquare2.gif,pic108.bmp,Mask.bmp,0120216,10:13:09,4.0.5.0,37,blackdirect,4,4,1574,plus1,0,b10.bmp,Judgedirect,blacksquare2.gif,pic116.bmp,Mask.bmp,0120216,10:13:09,4.0.5.0,37,whitedirect,4,5,2722,minus1,0,w07.bmp,Judgedirect,blacksquare2.gif,pic105.bmp,Mask.bmp,0120216,10:13:09,4.0.5.0,37,blackdirect,4,6,1644,minus1,0,b07.bmp,Judgedirect,blacksquare2.gif,pic117.bmp,Mask.bmp,0120216,10:13:09,4.0.5.0,37,whitedirect,4,7,1252,plus1,0,w05.bmp,Judgedirect,blacksquare2.gif,pic111.bmp,Mask.bmp,0120216,10:13:09,4.0.5.0,37,blackdirect,4,8,3578,minus1,0,b08.bmp,Judgedirect,blacksquare2.gif,pic107.bmp,Mask.bmp,0120216,10:13:09,4.0.5.0,37,whitedirect,4,9,1061,plus1,0,w09.bmp,Judgedirect,blacksquare2.gif,pic101.bmp,Mask.bmp,0120216,10:13:09,4.0.5.0,37,blackdirect,4,10,659,plus1,0,b03.bmp,Judgedirect,blacksquare2.gif,pic106.bmp,Mask.bmp,0120216,10:13:09,4.0.5.0,37,whitedirect,4,11,519,plus1,0,b10.jpg,Judgedirect,blacksquare2.gif,pic82.bmp,Mask.bmp,0120216,10:13:09,4.0.5.0,37,blackdirect,4,12,1552,minus1,0,b11.bmp,Judgedirect,blacksquare2.gif,pic114.bmp,Mask.bmp,0120216,10:13:09,4.0.5.0,37,whitedirect,4,13,1300,minus1,0,w02.bmp,Judgedirect,blacksquare2.gif,pic113.bmp,Mask.bmp,0120216,10:13:09,4.0.5.0,37,blackdirect,4,14,2153,plus1,0,b02.bmp,Judgedirect,blacksquare2.gif,pic100.bmp,Mask.bmp,0120216,10:13:09,4.0.5.0,37,whitedirect,4,15,991,plus1,0,w08.bmp,Judgedirect,blacksquare2.gif,pic81.bmp,Mask.bmp,0120216,10:13:09,4.0.5.0,37,blackdirect,4,16,607,plus1,0,b01.bmp,Judgedirect,blacksquare2.gif,pic104.bmp,Mask.bmp,0120216,10:13:09,4.0.5.0,37,whitedirect,4,17,597,plus1,0,w06.bmp,Judgedirect,blacksquare2.gif,pic115.bmp,Mask.bmp,0120216,10:13:09,4.0.5.0,37,blackdirect,4,18,1436,minus1,0,b12.bmp,Judgedirect,blacksquare2.gif,pic80.bmp,Mask.bmp,0120216,10:13:09,4.0.5.0,37,whitedirect,4,19,3060,plus1,0,b11.jpg,Judgedirect,blacksquare2.gif,pic109.bmp,Mask.bmp,0120216,10:13:09,4.0.5.0,37,blackdirect,4,20,569,plus1,0,b04.bmp,Judgedirect,blacksquare2.gif,pic103.bmp,Mask.bmp,0120216,10:13:09,4.0.5.0,37,whitedirect,4,21,392,plus1,0,w04.bmp,Judgedirect,blacksquare2.gif,pic78.bmp,Mask.bmp,0120216,10:13:09,4.0.5.0,37,blackdirect,4,22,733,plus1,0,b05.bmp,Judgedirect,blacksquare2.gif,pic118.bmp,Mask.bmp,0120216,10:13:09,4.0.5.0,37,whitedirect,4,23,399,plus1,0,w01.bmp,Judgedirect,blacksquare2.gif,pic112.bmp,Mask.bmp,0120216,10:13:09,4.0.5.0,37,blackdirect,4,24,516,plus1,0,b09.bmp,Judgedirect,blacksquare2.gif,pic110.bmp,Mask.bmp,0120216,10:13:09,4.0.5.0,37,whiteindirect,6,1,4733,plus1,0,b12.jpg,Judgeindirect,blacksquare2.gif,pic26.bmp,Mask.bmp,0120216,10:13:09,4.0.5.0,37,blackindirect,6,2,3230,plus1,0,b08.bmp,Judgeindirect,blacksquare2.gif,pic69.bmp,Mask.bmp,0120216,10:13:09,4.0.5.0,37,neutral,6,3,1117,plus1,0,GREY.bmp,Judgeindirect,blacksquare2.gif,pic30.bmp,Mask.bmp,0120216,10:13:09,4.0.5.0,37,neutral,6,4,1241,plus1,0,GREY.bmp,Judgeindirect,blacksquare2.gif,pic19.bmp,Mask.bmp,0120216,10:13:09,4.0.5.0,37,blackindirect,6,5,1024,plus1,0,b09.bmp,Judgeindirect,blacksquare2.gif,pic32.bmp,Mask.bmp,0120216,10:13:09,4.0.5.0,37,neutral,6,6,543,plus1,0,GREY.bmp,Judgeindirect,blacksquare2.gif,pic1.bmp,Mask.bmp,0120216,10:13:09,4.0.5.0,37,blackindirect,6,7,583,plus1,0,b10.bmp,Judgeindirect,blacksquare2.gif,pic18.bmp,Mask.bmp,0120216,10:13:09,4.0.5.0,37,neutral,6,8,582,plus1,0,GREY.bmp,Judgeindirect,blacksquare2.gif,pic13.bmp,Mask.bmp,0120216,10:13:09,4.0.5.0,37,blackindirect,6,9,445,plus1,0,b02.bmp,Judgeindirect,blacksquare2.gif,pic34.bmp,Mask.bmp,0120216,10:13:09,4.0.5.0,37,neutral,6,10,473,plus1,0,GREY.bmp,Judgeindirect,blacksquare2.gif,pic21.bmp,Mask.bmp,0120216,10:13:09,4.0.5.0,37,neutral,6,11,355,plus1,0,GREY.bmp,Judgeindirect,blacksquare2.gif,pic62.bmp,Mask.bmp,0120216,10:13:09,4.0.5.0,37,whiteindirect,6,12,362,plus1,0,w04.bmp,Judgeindirect,blacksquare2.gif,pic44.bmp,Mask.bmp,0120216,10:13:09,4.0.5.0,37,blackindirect,6,13,401,plus1,0,b01.bmp,Judgeindirect,blacksquare2.gif,pic64.bmp,Mask.bmp,0120216,10:13:09,4.0.5.0,37,neutral,6,14,374,plus1,0,GREY.bmp,Judgeindirect,blacksquare2.gif,pic70.bmp,Mask.bmp,0120216,10:13:09,4.0.5.0,37,whiteindirect,6,15,357,plus1,0,b10.jpg,Judgeindirect,blacksquare2.gif,pic49.bmp,Mask.bmp,0120216,10:13:09,4.0.5.0,37,whiteindirect,6,16,323,plus1,0,w09.bmp,Judgeindirect,blacksquare2.gif,pic41.bmp,Mask.bmp,0120216,10:13:09,4.0.5.0,37,blackindirect,6,17,332,plus1,0,b05.bmp,Judgeindirect,blacksquare2.gif,pic63.bmp,Mask.bmp,0120216,10:13:09,4.0.5.0,37,whiteindirect,6,18,404,plus1,0,w08.bmp,Judgeindirect,blacksquare2.gif,pic72.bmp,Mask.bmp,0120216,10:13:09,4.0.5.0,37,blackindirect,6,19,353,plus1,0,b04.bmp,Judgeindirect,blacksquare2.gif,pic27.bmp,Mask.bmp,0120216,10:13:09,4.0.5.0,37,blackindirect,6,20,400,plus1,0,b07.bmp,Judgeindirect,blacksquare2.gif,pic33.bmp,Mask.bmp,0120216,10:13:09,4.0.5.0,37,blackindirect,6,21,365,plus1,0,b12.bmp,Judgeindirect,blacksquare2.gif,pic71.bmp,Mask.bmp,0120216,10:13:09,4.0.5.0,37,whiteindirect,6,22,332,plus1,0,w02.bmp,Judgeindirect,blacksquare2.gif,pic15.bmp,Mask.bmp,0120216,10:13:09,4.0.5.0,37,blackindirect,6,23,364,plus1,0,b11.bmp,Judgeindirect,blacksquare2.gif,pic74.bmp,Mask.bmp,0120216,10:13:09,4.0.5.0,37,blackindirect,6,24,443,plus1,0,b03.bmp,Judgeindirect,blacksquare2.gif,pic73.bmp,Mask.bmp,0120216,10:13:09,4.0.5.0,37,blackindirect,6,25,382,plus1,0,b06.bmp,Judgeindirect,blacksquare2.gif,pic58.bmp,Mask.bmp,0120216,10:13:09,4.0.5.0,37,blackindirect,6,26,373,plus1,0,b01.bmp,Judgeindirect,blacksquare2.gif,pic14.bmp,Mask.bmp,0120216,10:13:09,4.0.5.0,37,neutral,6,27,307,plus1,0,GREY.bmp,Judgeindirect,blacksquare2.gif,pic31.bmp,Mask.bmp,0120216,10:13:09,4.0.5.0,37,whiteindirect,6,28,372,plus1,0,w05.bmp,Judgeindirect,blacksquare2.gif,pic50.bmp,Mask.bmp,0120216,10:13:09,4.0.5.0,37,neutral,6,29,282,plus1,0,GREY.bmp,Judgeindirect,blacksquare2.gif,pic39.bmp,Mask.bmp,0120216,10:13:09,4.0.5.0,37,blackindirect,6,30,300,plus1,0,b08.bmp,Judgeindirect,blacksquare2.gif,pic28.bmp,Mask.bmp,0120216,10:13:09,4.0.5.0,37,whiteindirect,6,31,253,plus1,0,w06.bmp,Judgeindirect,blacksquare2.gif,pic20.bmp,Mask.bmp,0120216,10:13:09,4.0.5.0,37,whiteindirect,6,32,279,plus1,0,w01.bmp,Judgeindirect,blacksquare2.gif,pic66.bmp,Mask.bmp,0120216,10:13:09,4.0.5.0,37,whiteindirect,6,33,305,plus1,0,b11.jpg,Judgeindirect,blacksquare2.gif,pic17.bmp,Mask.bmp,0120216,10:13:09,4.0.5.0,37,whiteindirect,6,34,290,plus1,0,w03.bmp,Judgeindirect,blacksquare2.gif,pic47.bmp,Mask.bmp,0120216,10:13:09,4.0.5.0,37,neutral,6,35,219,plus1,0,GREY.bmp,Judgeindirect,blacksquare2.gif,pic59.bmp,Mask.bmp,0120216,10:13:09,4.0.5.0,37,blackindirect,6,36,215,plus1,0,b07.bmp,Judgeindirect,blacksquare2.gif,pic6.bmp,Mask.bmp,0120216,10:13:09,4.0.5.0,37,whiteindirect,6,37,243,plus1,0,w07.bmp,Judgeindirect,blacksquare2.gif,pic42.bmp,Mask.bmp,0120216,10:13:09,4.0.5.0,37,neutral,6,38,246,plus1,0,GREY.bmp,Judgeindirect,blacksquare2.gif,pic53.bmp,Mask.bmp,0120216,10:13:09,4.0.5.0,37,blackindirect,6,39,305,plus1,0,b10.bmp,Judgeindirect,blacksquare2.gif,pic56.bmp,Mask.bmp,0120216,10:13:09,4.0.5.0,37,neutral,6,40,274,plus1,0,GREY.bmp,Judgeindirect,blacksquare2.gif,pic75.bmp,Mask.bmp,0120216,10:13:09,4.0.5.0,37,neutral,6,41,220,plus1,0,GREY.bmp,Judgeindirect,blacksquare2.gif,pic48.bmp,Mask.bmp,0120216,10:13:09,4.0.5.0,37,blackindirect,6,42,167,plus1,0,b03.bmp,Judgeindirect,blacksquare2.gif,pic52.bmp,Mask.bmp,0120216,10:13:09,4.0.5.0,37,neutral,6,43,197,plus1,0,GREY.bmp,Judgeindirect,blacksquare2.gif,pic22.bmp,Mask.bmp,0120216,10:13:09,4.0.5.0,37,neutral,6,44,2225,plus1,0,GREY.bmp,Judgeindirect,blacksquare2.gif,pic24.bmp,Mask.bmp,0120216,10:13:09,4.0.5.0,37,whiteindirect,6,45,556,plus1,0,w04.bmp,Judgeindirect,blacksquare2.gif,pic2.bmp,Mask.bmp,0120216,10:13:09,4.0.5.0,37,whiteindirect,6,46,476,plus1,0,w02.bmp,Judgeindirect,blacksquare2.gif,pic11.bmp,Mask.bmp,0120216,10:13:09,4.0.5.0,37,whiteindirect,6,47,351,plus1,0,b12.jpg,Judgeindirect,blacksquare2.gif,pic16.bmp,Mask.bmp,0120216,10:13:09,4.0.5.0,37,neutral,6,48,342,plus1,0,GREY.bmp,Judgeindirect,blacksquare2.gif,pic7.bmp,Mask.bmp,0120216,10:13:09,4.0.5.0,37,whiteindirect,6,49,301,plus1,0,w09.bmp,Judgeindirect,blacksquare2.gif,pic67.bmp,Mask.bmp,0120216,10:13:09,4.0.5.0,37,blackindirect,6,50,278,plus1,0,b06.bmp,Judgeindirect,blacksquare2.gif,pic3.bmp,Mask.bmp,0120216,10:13:09,4.0.5.0,37,blackindirect,6,51,312,plus1,0,b05.bmp,Judgeindirect,blacksquare2.gif,pic68.bmp,Mask.bmp,0120216,10:13:09,4.0.5.0,37,blackindirect,6,52,328,plus1,0,b09.bmp,Judgeindirect,blacksquare2.gif,pic10.bmp,Mask.bmp,0120216,10:13:09,4.0.5.0,37,neutral,6,53,320,plus1,0,GREY.bmp,Judgeindirect,blacksquare2.gif,pic12.bmp,Mask.bmp,0120216,10:13:09,4.0.5.0,37,whiteindirect,6,54,320,plus1,0,w08.bmp,Judgeindirect,blacksquare2.gif,pic9.bmp,Mask.bmp,0120216,10:13:09,4.0.5.0,37,whiteindirect,6,55,329,plus1,0,b10.jpg,Judgeindirect,blacksquare2.gif,pic4.bmp,Mask.bmp,0120216,10:13:09,4.0.5.0,37,neutral,6,56,320,plus1,0,GREY.bmp,Judgeindirect,blacksquare2.gif,pic38.bmp,Mask.bmp,0120216,10:13:09,4.0.5.0,37,neutral,6,57,288,plus1,0,GREY.bmp,Judgeindirect,blacksquare2.gif,pic65.bmp,Mask.bmp,0120216,10:13:09,4.0.5.0,37,blackindirect,6,58,273,plus1,0,b11.bmp,Judgeindirect,blacksquare2.gif,pic51.bmp,Mask.bmp,0120216,10:13:09,4.0.5.0,37,neutral,6,59,299,plus1,0,GREY.bmp,Judgeindirect,blacksquare2.gif,pic5.bmp,Mask.bmp,0120216,10:13:09,4.0.5.0,37,blackindirect,6,60,284,plus1,0,b04.bmp,Judgeindirect,blacksquare2.gif,pic25.bmp,Mask.bmp,0120216,10:13:09,4.0.5.0,37,blackindirect,6,61,325,plus1,0,b02.bmp,Judgeindirect,blacksquare2.gif,pic57.bmp,Mask.bmp,0120216,10:13:09,4.0.5.0,37,neutral,6,62,277,plus1,0,GREY.bmp,Judgeindirect,blacksquare2.gif,pic55.bmp,Mask.bmp,0120216,10:13:09,4.0.5.0,37,whiteindirect,6,63,279,plus1,0,w06.bmp,Judgeindirect,blacksquare2.gif,pic29.bmp,Mask.bmp,0120216,10:13:09,4.0.5.0,37,neutral,6,64,337,plus1,0,GREY.bmp,Judgeindirect,blacksquare2.gif,pic23.bmp,Mask.bmp,0120216,10:13:09,4.0.5.0,37,blackindirect,6,65,2880,minus1,0,b12.bmp,Judgeindirect,blacksquare2.gif,pic54.bmp,Mask.bmp,0120216,10:13:09,4.0.5.0,37,whiteindirect,6,66,1252,plus1,0,w05.bmp,Judgeindirect,blacksquare2.gif,pic61.bmp,Mask.bmp,0120216,10:13:09,4.0.5.0,37,whiteindirect,6,67,179,plus1,0,b11.jpg,Judgeindirect,blacksquare2.gif,pic43.bmp,Mask.bmp,0120216,10:13:09,4.0.5.0,37,neutral,6,68,281,plus1,0,GREY.bmp,Judgeindirect,blacksquare2.gif,pic37.bmp,Mask.bmp,0120216,10:13:09,4.0.5.0,37,whiteindirect,6,69,330,plus1,0,w01.bmp,Judgeindirect,blacksquare2.gif,pic8.bmp,Mask.bmp,0120216,10:13:09,4.0.5.0,37,whiteindirect,6,70,339,plus1,0,w07.bmp,Judgeindirect,blacksquare2.gif,pic45.bmp,Mask.bmp,0120216,10:13:09,4.0.5.0,37,neutral,6,71,442,plus1,0,GREY.bmp,Judgeindirect,blacksquare2.gif,pic46.bmp,Mask.bmp,0120216,10:13:09,4.0.5.0,37,whiteindirect,6,72,390,plus1,0,w03.bmp,Judgeindirect,blacksquare2.gif,pic60.bmp,Mask.bmp,0120216,10:13:09,4.0.5.0,37,sesso,7,1,33045,2,1,0,demo,0,0,0,0120216,10:13:09,4.0.5.0,37,anni,7,1,33045,19,1,0,demo,0,0,0,0120216,10:13:09,4.0.5.0,37,etnia,7,1,33045,Altro,1,0,demo,0,0,0,0120216,10:39:13,4.0.5.0,38,practice,1,1,8548,57,1,sample.bmp,orient1,blacksquare2.gif,pic76.bmp,Mask.bmp,0120216,10:39:13,4.0.5.0,38,blackindirect,4,1,5276,plus1,0,b06.bmp,Judgeindirect,blacksquare2.gif,pic46.bmp,Mask.bmp,0120216,10:39:13,4.0.5.0,38,blackindirect,4,2,3722,minus1,0,b07.bmp,Judgeindirect,blacksquare2.gif,pic27.bmp,Mask.bmp,0120216,10:39:13,4.0.5.0,38,blackindirect,4,3,1568,plus2,0,b03.bmp,Judgeindirect,blacksquare2.gif,pic8.bmp,Mask.bmp,0120216,10:39:13,4.0.5.0,38,neutral,4,4,2547,plus1,0,GREY.bmp,Judgeindirect,blacksquare2.gif,pic42.bmp,Mask.bmp,0120216,10:39:13,4.0.5.0,38,neutral,4,5,3259,plus1,0,GREY.bmp,Judgeindirect,blacksquare2.gif,pic34.bmp,Mask.bmp,0120216,10:39:13,4.0.5.0,38,whiteindirect,4,6,1777,plus1,0,w09.bmp,Judgeindirect,blacksquare2.gif,pic26.bmp,Mask.bmp,0120216,10:39:13,4.0.5.0,38,whiteindirect,4,7,2549,plus2,0,w04.bmp,Judgeindirect,blacksquare2.gif,pic24.bmp,Mask.bmp,0120216,10:39:13,4.0.5.0,38,blackindirect,4,8,3437,minus1,0,b04.bmp,Judgeindirect,blacksquare2.gif,pic71.bmp,Mask.bmp,0120216,10:39:13,4.0.5.0,38,neutral,4,9,3524,minus1,0,GREY.bmp,Judgeindirect,blacksquare2.gif,pic33.bmp,Mask.bmp,0120216,10:39:13,4.0.5.0,38,blackindirect,4,10,2137,minus1,0,b01.bmp,Judgeindirect,blacksquare2.gif,pic67.bmp,Mask.bmp,0120216,10:39:13,4.0.5.0,38,neutral,4,11,1752,minus1,0,GREY.bmp,Judgeindirect,blacksquare2.gif,pic65.bmp,Mask.bmp,0120216,10:39:13,4.0.5.0,38,neutral,4,12,1141,plus1,0,GREY.bmp,Judgeindirect,blacksquare2.gif,pic23.bmp,Mask.bmp,0120216,10:39:13,4.0.5.0,38,neutral,4,13,1328,plus1,0,GREY.bmp,Judgeindirect,blacksquare2.gif,pic72.bmp,Mask.bmp,0120216,10:39:13,4.0.5.0,38,blackindirect,4,14,3316,plus1,0,b11.bmp,Judgeindirect,blacksquare2.gif,pic38.bmp,Mask.bmp,0120216,10:39:13,4.0.5.0,38,blackindirect,4,15,1072,plus2,0,b12.bmp,Judgeindirect,blacksquare2.gif,pic1.bmp,Mask.bmp,0120216,10:39:13,4.0.5.0,38,neutral,4,16,1837,plus2,0,GREY.bmp,Judgeindirect,blacksquare2.gif,pic47.bmp,Mask.bmp,0120216,10:39:13,4.0.5.0,38,whiteindirect,4,17,1223,plus1,0,w05.bmp,Judgeindirect,blacksquare2.gif,pic60.bmp,Mask.bmp,0120216,10:39:13,4.0.5.0,38,whiteindirect,4,18,1447,minus1,0,b12.jpg,Judgeindirect,blacksquare2.gif,pic68.bmp,Mask.bmp,0120216,10:39:13,4.0.5.0,38,whiteindirect,4,19,1694,plus2,0,w06.bmp,Judgeindirect,blacksquare2.gif,pic69.bmp,Mask.bmp,0120216,10:39:13,4.0.5.0,38,whiteindirect,4,20,1365,plus2,0,b10.jpg,Judgeindirect,blacksquare2.gif,pic11.bmp,Mask.bmp,0120216,10:39:13,4.0.5.0,38,neutral,4,21,1935,minus1,0,GREY.bmp,Judgeindirect,blacksquare2.gif,pic58.bmp,Mask.bmp,0120216,10:39:13,4.0.5.0,38,neutral,4,22,1437,minus1,0,GREY.bmp,Judgeindirect,blacksquare2.gif,pic16.bmp,Mask.bmp,0120216,10:39:13,4.0.5.0,38,blackindirect,4,23,1973,plus1,0,b02.bmp,Judgeindirect,blacksquare2.gif,pic44.bmp,Mask.bmp,0120216,10:39:13,4.0.5.0,38,whiteindirect,4,24,2050,plus1,0,w07.bmp,Judgeindirect,blacksquare2.gif,pic6.bmp,Mask.bmp,0120216,10:39:13,4.0.5.0,38,neutral,4,25,1308,minus1,0,GREY.bmp,Judgeindirect,blacksquare2.gif,pic52.bmp,Mask.bmp,0120216,10:39:13,4.0.5.0,38,whiteindirect,4,26,1417,plus2,0,b11.jpg,Judgeindirect,blacksquare2.gif,pic17.bmp,Mask.bmp,0120216,10:39:13,4.0.5.0,38,whiteindirect,4,27,2098,minus1,0,w02.bmp,Judgeindirect,blacksquare2.gif,pic54.bmp,Mask.bmp,0120216,10:39:13,4.0.5.0,38,neutral,4,28,1778,plus1,0,GREY.bmp,Judgeindirect,blacksquare2.gif,pic18.bmp,Mask.bmp,0120216,10:39:13,4.0.5.0,38,neutral,4,29,1709,plus1,0,GREY.bmp,Judgeindirect,blacksquare2.gif,pic50.bmp,Mask.bmp,0120216,10:39:13,4.0.5.0,38,neutral,4,30,1788,minus1,0,GREY.bmp,Judgeindirect,blacksquare2.gif,pic62.bmp,Mask.bmp,0120216,10:39:13,4.0.5.0,38,blackindirect,4,31,2959,plus2,0,b10.bmp,Judgeindirect,blacksquare2.gif,pic53.bmp,Mask.bmp,0120216,10:39:13,4.0.5.0,38,neutral,4,32,1568,plus1,0,GREY.bmp,Judgeindirect,blacksquare2.gif,pic43.bmp,Mask.bmp,0120216,10:39:13,4.0.5.0,38,neutral,4,33,1371,plus2,0,GREY.bmp,Judgeindirect,blacksquare2.gif,pic9.bmp,Mask.bmp,0120216,10:39:13,4.0.5.0,38,whiteindirect,4,34,942,plus2,0,w08.bmp,Judgeindirect,blacksquare2.gif,pic31.bmp,Mask.bmp,0120216,10:39:13,4.0.5.0,38,blackindirect,4,35,1144,plus1,0,b09.bmp,Judgeindirect,blacksquare2.gif,pic59.bmp,Mask.bmp,0120216,10:39:13,4.0.5.0,38,whiteindirect,4,36,2083,minus1,0,w01.bmp,Judgeindirect,blacksquare2.gif,pic64.bmp,Mask.bmp,0120216,10:39:13,4.0.5.0,38,whiteindirect,4,37,971,minus1,0,w03.bmp,Judgeindirect,blacksquare2.gif,pic21.bmp,Mask.bmp,0120216,10:39:13,4.0.5.0,38,whiteindirect,4,38,1180,minus1,0,w03.bmp,Judgeindirect,blacksquare2.gif,pic19.bmp,Mask.bmp,0120216,10:39:13,4.0.5.0,38,neutral,4,39,1261,plus1,0,GREY.bmp,Judgeindirect,blacksquare2.gif,pic61.bmp,Mask.bmp,0120216,10:39:13,4.0.5.0,38,blackindirect,4,40,1348,plus1,0,b05.bmp,Judgeindirect,blacksquare2.gif,pic48.bmp,Mask.bmp,0120216,10:39:13,4.0.5.0,38,blackindirect,4,41,1135,minus1,0,b08.bmp,Judgeindirect,blacksquare2.gif,pic22.bmp,Mask.bmp,0120216,10:39:13,4.0.5.0,38,whiteindirect,4,42,5161,plus1,0,w02.bmp,Judgeindirect,blacksquare2.gif,pic66.bmp,Mask.bmp,0120216,10:39:13,4.0.5.0,38,whiteindirect,4,43,1564,plus1,0,b11.jpg,Judgeindirect,blacksquare2.gif,pic63.bmp,Mask.bmp,0120216,10:39:13,4.0.5.0,38,whiteindirect,4,44,2143,minus1,0,w05.bmp,Judgeindirect,blacksquare2.gif,pic74.bmp,Mask.bmp,0120216,10:39:13,4.0.5.0,38,neutral,4,45,1453,minus1,0,GREY.bmp,Judgeindirect,blacksquare2.gif,pic12.bmp,Mask.bmp,0120216,10:39:13,4.0.5.0,38,neutral,4,46,892,minus1,0,GREY.bmp,Judgeindirect,blacksquare2.gif,pic45.bmp,Mask.bmp,0120216,10:39:13,4.0.5.0,38,neutral,4,47,728,minus1,0,GREY.bmp,Judgeindirect,blacksquare2.gif,pic37.bmp,Mask.bmp,0120216,10:39:13,4.0.5.0,38,whiteindirect,4,48,1690,plus1,0,w01.bmp,Judgeindirect,blacksquare2.gif,pic29.bmp,Mask.bmp,0120216,10:39:13,4.0.5.0,38,neutral,4,49,2097,minus1,0,GREY.bmp,Judgeindirect,blacksquare2.gif,pic30.bmp,Mask.bmp,0120216,10:39:13,4.0.5.0,38,blackindirect,4,50,1361,plus1,0,b07.bmp,Judgeindirect,blacksquare2.gif,pic5.bmp,Mask.bmp,0120216,10:39:13,4.0.5.0,38,whiteindirect,4,51,1196,minus1,0,w07.bmp,Judgeindirect,blacksquare2.gif,pic4.bmp,Mask.bmp,0120216,10:39:13,4.0.5.0,38,whiteindirect,4,52,1461,minus1,0,w04.bmp,Judgeindirect,blacksquare2.gif,pic3.bmp,Mask.bmp,0120216,10:39:13,4.0.5.0,38,blackindirect,4,53,1124,plus1,0,b08.bmp,Judgeindirect,blacksquare2.gif,pic10.bmp,Mask.bmp,0120216,10:39:13,4.0.5.0,38,blackindirect,4,54,1143,plus2,0,b10.bmp,Judgeindirect,blacksquare2.gif,pic39.bmp,Mask.bmp,0120216,10:39:13,4.0.5.0,38,blackindirect,4,55,1274,plus1,0,b09.bmp,Judgeindirect,blacksquare2.gif,pic25.bmp,Mask.bmp,0120216,10:39:13,4.0.5.0,38,neutral,4,56,1600,plus2,0,GREY.bmp,Judgeindirect,blacksquare2.gif,pic49.bmp,Mask.bmp,0120216,10:39:13,4.0.5.0,38,whiteindirect,4,57,2106,plus2,0,w06.bmp,Judgeindirect,blacksquare2.gif,pic36.bmp,Mask.bmp,0120216,10:39:13,4.0.5.0,38,neutral,4,58,946,minus1,0,GREY.bmp,Judgeindirect,blacksquare2.gif,pic73.bmp,Mask.bmp,0120216,10:39:13,4.0.5.0,38,blackindirect,4,59,1580,plus1,0,b06.bmp,Judgeindirect,blacksquare2.gif,pic40.bmp,Mask.bmp,0120216,10:39:13,4.0.5.0,38,whiteindirect,4,60,2119,minus2,0,w09.bmp,Judgeindirect,blacksquare2.gif,pic28.bmp,Mask.bmp,0120216,10:39:13,4.0.5.0,38,neutral,4,61,1342,minus2,0,GREY.bmp,Judgeindirect,blacksquare2.gif,pic56.bmp,Mask.bmp,0120216,10:39:13,4.0.5.0,38,whiteindirect,4,62,2322,plus1,0,b12.jpg,Judgeindirect,blacksquare2.gif,pic51.bmp,Mask.bmp,0120216,10:39:13,4.0.5.0,38,blackindirect,4,63,1114,minus1,0,b11.bmp,Judgeindirect,blacksquare2.gif,pic32.bmp,Mask.bmp,0120216,10:39:13,4.0.5.0,38,whiteindirect,4,64,1950,plus1,0,b10.jpg,Judgeindirect,blacksquare2.gif,pic2.bmp,Mask.bmp,0120216,10:39:13,4.0.5.0,38,blackindirect,4,65,3195,minus1,0,b03.bmp,Judgeindirect,blacksquare2.gif,pic15.bmp,Mask.bmp,0