date,time,build,subject,trialcode,blocknum,trialnum,latency,response,correct,stimulus1,blockcode,stimulusitem2,stimulusitem3,stimulusitem4,stimulusitem521617,13:47:04,5.0.6.0,998754,practice,1,1,763,57,1,sample.bmp,orient1,blacksquare2.gif,pic76.bmp,Mask.bmp,021617,13:47:04,5.0.6.0,998754,neutral,4,1,715,minus1,0,GREY.bmp,Judgeindirect,blacksquare2.gif,pic61.bmp,Mask.bmp,021617,13:47:04,5.0.6.0,998754,neutral,4,2,270,minus2,0,GREY.bmp,Judgeindirect,blacksquare2.gif,pic34.bmp,Mask.bmp,021617,13:47:04,5.0.6.0,998754,blackindirect,4,3,19,minus2,0,b08.bmp,Judgeindirect,blacksquare2.gif,pic47.bmp,Mask.bmp,021617,13:47:04,5.0.6.0,998754,blackindirect,4,4,3,minus2,0,b01.bmp,Judgeindirect,blacksquare2.gif,pic70.bmp,Mask.bmp,021617,13:47:04,5.0.6.0,998754,neutral,4,5,395,minus1,0,GREY.bmp,Judgeindirect,blacksquare2.gif,pic46.bmp,Mask.bmp,021617,13:47:04,5.0.6.0,998754,whiteindirect,4,6,171,minus1,0,b11.jpg,Judgeindirect,blacksquare2.gif,pic40.bmp,Mask.bmp,021617,13:47:04,5.0.6.0,998754,blackindirect,4,7,140,minus1,0,b11.bmp,Judgeindirect,blacksquare2.gif,pic55.bmp,Mask.bmp,021617,13:47:04,5.0.6.0,998754,whiteindirect,4,8,47,minus1,0,b10.jpg,Judgeindirect,blacksquare2.gif,pic38.bmp,Mask.bmp,021617,13:47:04,5.0.6.0,998754,blackindirect,4,9,5,minus1,0,b03.bmp,Judgeindirect,blacksquare2.gif,pic1.bmp,Mask.bmp,021617,13:47:04,5.0.6.0,998754,neutral,4,10,5,minus1,0,GREY.bmp,Judgeindirect,blacksquare2.gif,pic11.bmp,Mask.bmp,021617,13:47:04,5.0.6.0,998754,whiteindirect,4,11,157,minus1,0,w09.bmp,Judgeindirect,blacksquare2.gif,pic36.bmp,Mask.bmp,021617,13:47:04,5.0.6.0,998754,whiteindirect,4,12,23,minus1,0,w04.bmp,Judgeindirect,blacksquare2.gif,pic45.bmp,Mask.bmp,021617,13:47:04,5.0.6.0,998754,neutral,4,13,151,minus1,0,GREY.bmp,Judgeindirect,blacksquare2.gif,pic26.bmp,Mask.bmp,021617,13:47:04,5.0.6.0,998754,blackindirect,4,14,17,minus1,0,b10.bmp,Judgeindirect,blacksquare2.gif,pic68.bmp,Mask.bmp,021617,13:47:04,5.0.6.0,998754,whiteindirect,4,15,80,minus1,0,w03.bmp,Judgeindirect,blacksquare2.gif,pic39.bmp,Mask.bmp,021617,13:47:04,5.0.6.0,998754,neutral,4,16,189,minus1,0,GREY.bmp,Judgeindirect,blacksquare2.gif,pic44.bmp,Mask.bmp,021617,13:47:04,5.0.6.0,998754,whiteindirect,4,17,166,minus1,0,b12.jpg,Judgeindirect,blacksquare2.gif,pic2.bmp,Mask.bmp,021617,13:47:04,5.0.6.0,998754,blackindirect,4,18,7,minus1,0,b05.bmp,Judgeindirect,blacksquare2.gif,pic52.bmp,Mask.bmp,021617,13:47:04,5.0.6.0,998754,neutral,4,19,159,minus1,0,GREY.bmp,Judgeindirect,blacksquare2.gif,pic9.bmp,Mask.bmp,021617,13:47:04,5.0.6.0,998754,whiteindirect,4,20,26,minus1,0,w07.bmp,Judgeindirect,blacksquare2.gif,pic37.bmp,Mask.bmp,021617,13:47:04,5.0.6.0,998754,blackindirect,4,21,25,minus1,0,b09.bmp,Judgeindirect,blacksquare2.gif,pic53.bmp,Mask.bmp,021617,13:47:04,5.0.6.0,998754,neutral,4,22,9,minus1,0,GREY.bmp,Judgeindirect,blacksquare2.gif,pic10.bmp,Mask.bmp,021617,13:47:04,5.0.6.0,998754,neutral,4,23,161,minus1,0,GREY.bmp,Judgeindirect,blacksquare2.gif,pic29.bmp,Mask.bmp,021617,13:47:04,5.0.6.0,998754,neutral,4,24,18,minus1,0,GREY.bmp,Judgeindirect,blacksquare2.gif,pic62.bmp,Mask.bmp,021617,13:47:04,5.0.6.0,998754,whiteindirect,4,25,170,minus1,0,w01.bmp,Judgeindirect,blacksquare2.gif,pic60.bmp,Mask.bmp,021617,13:47:04,5.0.6.0,998754,blackindirect,4,26,27,minus1,0,b04.bmp,Judgeindirect,blacksquare2.gif,pic58.bmp,Mask.bmp,021617,13:47:04,5.0.6.0,998754,blackindirect,4,27,11,minus1,0,b02.bmp,Judgeindirect,blacksquare2.gif,pic57.bmp,Mask.bmp,021617,13:47:04,5.0.6.0,998754,blackindirect,4,28,18,minus1,0,b12.bmp,Judgeindirect,blacksquare2.gif,pic50.bmp,Mask.bmp,021617,13:47:04,5.0.6.0,998754,blackindirect,4,29,162,minus1,0,b07.bmp,Judgeindirect,blacksquare2.gif,pic66.bmp,Mask.bmp,021617,13:47:04,5.0.6.0,998754,neutral,4,30,187,minus1,0,GREY.bmp,Judgeindirect,blacksquare2.gif,pic25.bmp,Mask.bmp,021617,13:47:04,5.0.6.0,998754,neutral,4,31,244,minus1,0,GREY.bmp,Judgeindirect,blacksquare2.gif,pic41.bmp,Mask.bmp,021617,13:47:04,5.0.6.0,998754,neutral,4,32,82,minus1,0,GREY.bmp,Judgeindirect,blacksquare2.gif,pic54.bmp,Mask.bmp,021617,13:47:04,5.0.6.0,998754,whiteindirect,4,33,303,minus1,0,w02.bmp,Judgeindirect,blacksquare2.gif,pic63.bmp,Mask.bmp,021617,13:47:04,5.0.6.0,998754,blackindirect,4,34,19,minus1,0,b06.bmp,Judgeindirect,blacksquare2.gif,pic14.bmp,Mask.bmp,021617,13:47:04,5.0.6.0,998754,whiteindirect,4,35,43,minus1,0,w06.bmp,Judgeindirect,blacksquare2.gif,pic27.bmp,Mask.bmp,021617,13:47:04,5.0.6.0,998754,blackindirect,4,36,34,minus1,0,b03.bmp,Judgeindirect,blacksquare2.gif,pic51.bmp,Mask.bmp,021617,13:47:04,5.0.6.0,998754,whiteindirect,4,37,40,minus1,0,w08.bmp,Judgeindirect,blacksquare2.gif,pic16.bmp,Mask.bmp,021617,13:47:04,5.0.6.0,998754,blackindirect,4,38,207,minus1,0,b11.bmp,Judgeindirect,blacksquare2.gif,pic43.bmp,Mask.bmp,021617,13:47:04,5.0.6.0,998754,neutral,4,39,279,minus1,0,GREY.bmp,Judgeindirect,blacksquare2.gif,pic8.bmp,Mask.bmp,021617,13:47:04,5.0.6.0,998754,blackindirect,4,40,108,minus1,0,b02.bmp,Judgeindirect,blacksquare2.gif,pic31.bmp,Mask.bmp,021617,13:47:04,5.0.6.0,998754,whiteindirect,4,41,200,minus1,0,w05.bmp,Judgeindirect,blacksquare2.gif,pic18.bmp,Mask.bmp,021617,13:47:04,5.0.6.0,998754,neutral,4,42,72,minus1,0,GREY.bmp,Judgeindirect,blacksquare2.gif,pic13.bmp,Mask.bmp,021617,13:47:04,5.0.6.0,998754,whiteindirect,4,43,37,minus1,0,b11.jpg,Judgeindirect,blacksquare2.gif,pic74.bmp,Mask.bmp,021617,13:47:04,5.0.6.0,998754,blackindirect,4,44,44,minus1,0,b07.bmp,Judgeindirect,blacksquare2.gif,pic69.bmp,Mask.bmp,021617,13:47:04,5.0.6.0,998754,blackindirect,4,45,26,minus1,0,b05.bmp,Judgeindirect,blacksquare2.gif,pic3.bmp,Mask.bmp,021617,13:47:04,5.0.6.0,998754,whiteindirect,4,46,66,minus1,0,w06.bmp,Judgeindirect,blacksquare2.gif,pic7.bmp,Mask.bmp,021617,13:47:04,5.0.6.0,998754,neutral,4,47,95,minus1,0,GREY.bmp,Judgeindirect,blacksquare2.gif,pic42.bmp,Mask.bmp,021617,13:47:04,5.0.6.0,998754,neutral,4,48,36,minus1,0,GREY.bmp,Judgeindirect,blacksquare2.gif,pic64.bmp,Mask.bmp,021617,13:47:04,5.0.6.0,998754,neutral,4,49,74,minus1,0,GREY.bmp,Judgeindirect,blacksquare2.gif,pic12.bmp,Mask.bmp,021617,13:47:04,5.0.6.0,998754,neutral,4,50,0,minus1,0,GREY.bmp,Judgeindirect,blacksquare2.gif,pic6.bmp,Mask.bmp,021617,13:47:04,5.0.6.0,998754,whiteindirect,4,51,152,minus1,0,w02.bmp,Judgeindirect,blacksquare2.gif,pic4.bmp,Mask.bmp,021617,13:47:04,5.0.6.0,998754,blackindirect,4,52,42,minus1,0,b01.bmp,Judgeindirect,blacksquare2.gif,pic19.bmp,Mask.bmp,021617,13:47:04,5.0.6.0,998754,blackindirect,4,53,73,minus1,0,b09.bmp,Judgeindirect,blacksquare2.gif,pic5.bmp,Mask.bmp,021617,13:47:04,5.0.6.0,998754,whiteindirect,4,54,78,minus1,0,b10.jpg,Judgeindirect,blacksquare2.gif,pic65.bmp,Mask.bmp,021617,13:47:04,5.0.6.0,998754,neutral,4,55,27,minus1,0,GREY.bmp,Judgeindirect,blacksquare2.gif,pic49.bmp,Mask.bmp,021617,13:47:04,5.0.6.0,998754,whiteindirect,4,56,75,minus1,0,w03.bmp,Judgeindirect,blacksquare2.gif,pic32.bmp,Mask.bmp,021617,13:47:04,5.0.6.0,998754,blackindirect,4,57,56,minus1,0,b10.bmp,Judgeindirect,blacksquare2.gif,pic73.bmp,Mask.bmp,021617,13:47:04,5.0.6.0,998754,whiteindirect,4,58,38,minus1,0,w01.bmp,Judgeindirect,blacksquare2.gif,pic75.bmp,Mask.bmp,021617,13:47:04,5.0.6.0,998754,whiteindirect,4,59,61,minus1,0,w05.bmp,Judgeindirect,blacksquare2.gif,pic28.bmp,Mask.bmp,021617,13:47:04,5.0.6.0,998754,whiteindirect,4,60,35,minus1,0,w04.bmp,Judgeindirect,blacksquare2.gif,pic48.bmp,Mask.bmp,021617,13:47:04,5.0.6.0,998754,neutral,4,61,18,minus1,0,GREY.bmp,Judgeindirect,blacksquare2.gif,pic72.bmp,Mask.bmp,021617,13:47:04,5.0.6.0,998754,blackindirect,4,62,25,minus1,0,b06.bmp,Judgeindirect,blacksquare2.gif,pic33.bmp,Mask.bmp,021617,13:47:04,5.0.6.0,998754,whiteindirect,4,63,65,minus1,0,w08.bmp,Judgeindirect,blacksquare2.gif,pic17.bmp,Mask.bmp,021617,13:47:04,5.0.6.0,998754,blackindirect,4,64,86,minus1,0,b08.bmp,Judgeindirect,blacksquare2.gif,pic59.bmp,Mask.bmp,021617,13:47:04,5.0.6.0,998754,neutral,4,65,187,minus1,0,GREY.bmp,Judgeindirect,blacksquare2.gif,pic23.bmp,Mask.bmp,021617,13:47:04,5.0.6.0,998754,neutral,4,66,124,minus1,0,GREY.bmp,Judgeindirect,blacksquare2.gif,pic22.bmp,Mask.bmp,021617,13:47:04,5.0.6.0,998754,blackindirect,4,67,111,minus1,0,b12.bmp,Judgeindirect,blacksquare2.gif,pic15.bmp,Mask.bmp,021617,13:47:04,5.0.6.0,998754,blackindirect,4,68,58,minus1,0,b04.bmp,Judgeindirect,blacksquare2.gif,pic21.bmp,Mask.bmp,021617,13:47:04,5.0.6.0,998754,neutral,4,69,145,minus1,0,GREY.bmp,Judgeindirect,blacksquare2.gif,pic67.bmp,Mask.bmp,021617,13:47:04,5.0.6.0,998754,whiteindirect,4,70,75,minus1,0,w09.bmp,Judgeindirect,blacksquare2.gif,pic30.bmp,Mask.bmp,021617,13:47:04,5.0.6.0,998754,whiteindirect,4,71,72,minus1,0,b12.jpg,Judgeindirect,blacksquare2.gif,pic56.bmp,Mask.bmp,021617,13:47:04,5.0.6.0,998754,whiteindirect,4,72,86,minus1,0,w07.bmp,Judgeindirect,blacksquare2.gif,pic71.bmp,Mask.bmp,021617,13:47:04,5.0.6.0,998754,whitedirect,6,1,462,plus1,0,b10.jpg,Judgedirect,blacksquare2.gif,pic103.bmp,Mask.bmp,021617,13:47:04,5.0.6.0,998754,blackdirect,6,2,43,plus1,0,b04.bmp,Judgedirect,blacksquare2.gif,pic108.bmp,Mask.bmp,021617,13:47:04,5.0.6.0,998754,whitedirect,6,3,2,plus1,0,b11.jpg,Judgedirect,blacksquare2.gif,pic115.bmp,Mask.bmp,021617,13:47:04,5.0.6.0,998754,blackdirect,6,4,66,plus1,0,b07.bmp,Judgedirect,blacksquare2.gif,pic80.bmp,Mask.bmp,021617,13:47:04,5.0.6.0,998754,whitedirect,6,5,71,plus1,0,w07.bmp,Judgedirect,blacksquare2.gif,pic102.bmp,Mask.bmp,021617,13:47:04,5.0.6.0,998754,blackdirect,6,6,29,plus1,0,b11.bmp,Judgedirect,blacksquare2.gif,pic78.bmp,Mask.bmp,021617,13:47:04,5.0.6.0,998754,whitedirect,6,7,44,plus1,0,w05.bmp,Judgedirect,blacksquare2.gif,pic100.bmp,Mask.bmp,021617,13:47:04,5.0.6.0,998754,blackdirect,6,8,106,plus1,0,b10.bmp,Judgedirect,blacksquare2.gif,pic118.bmp,Mask.bmp,021617,13:47:04,5.0.6.0,998754,whitedirect,6,9,55,plus1,0,w01.bmp,Judgedirect,blacksquare2.gif,pic112.bmp,Mask.bmp,021617,13:47:04,5.0.6.0,998754,blackdirect,6,10,61,plus1,0,b05.bmp,Judgedirect,blacksquare2.gif,pic104.bmp,Mask.bmp,021617,13:47:04,5.0.6.0,998754,whitedirect,6,11,99,plus1,0,w03.bmp,Judgedirect,blacksquare2.gif,pic81.bmp,Mask.bmp,021617,13:47:04,5.0.6.0,998754,blackdirect,6,12,47,plus1,0,b02.bmp,Judgedirect,blacksquare2.gif,pic110.bmp,Mask.bmp,021617,13:47:04,5.0.6.0,998754,whitedirect,6,13,37,plus1,0,b12.jpg,Judgedirect,blacksquare2.gif,pic82.bmp,Mask.bmp,021617,13:47:04,5.0.6.0,998754,blackdirect,6,14,84,plus1,0,b03.bmp,Judgedirect,blacksquare2.gif,pic109.bmp,Mask.bmp,021617,13:47:04,5.0.6.0,998754,whitedirect,6,15,25,plus1,0,w09.bmp,Judgedirect,blacksquare2.gif,pic116.bmp,Mask.bmp,021617,13:47:04,5.0.6.0,998754,blackdirect,6,16,48,plus1,0,b12.bmp,Judgedirect,blacksquare2.gif,pic113.bmp,Mask.bmp,021617,13:47:04,5.0.6.0,998754,whitedirect,6,17,54,plus1,0,w04.bmp,Judgedirect,blacksquare2.gif,pic79.bmp,Mask.bmp,021617,13:47:04,5.0.6.0,998754,blackdirect,6,18,37,plus1,0,b09.bmp,Judgedirect,blacksquare2.gif,pic111.bmp,Mask.bmp,021617,13:47:04,5.0.6.0,998754,whitedirect,6,19,51,plus1,0,w08.bmp,Judgedirect,blacksquare2.gif,pic105.bmp,Mask.bmp,021617,13:47:04,5.0.6.0,998754,blackdirect,6,20,58,plus1,0,b06.bmp,Judgedirect,blacksquare2.gif,pic106.bmp,Mask.bmp,021617,13:47:04,5.0.6.0,998754,whitedirect,6,21,72,plus1,0,w06.bmp,Judgedirect,blacksquare2.gif,pic101.bmp,Mask.bmp,021617,13:47:04,5.0.6.0,998754,blackdirect,6,22,29,plus1,0,b01.bmp,Judgedirect,blacksquare2.gif,pic114.bmp,Mask.bmp,021617,13:47:04,5.0.6.0,998754,whitedirect,6,23,52,plus1,0,w02.bmp,Judgedirect,blacksquare2.gif,pic107.bmp,Mask.bmp,021617,13:47:04,5.0.6.0,998754,blackdirect,6,24,162,plus1,0,b08.bmp,Judgedirect,blacksquare2.gif,pic117.bmp,Mask.bmp,021617,13:47:04,5.0.6.0,998754,gender,7,1,5546,1,1,0,demo,0,0,0,021617,13:47:04,5.0.6.0,998754,age,7,1,5546,32,1,0,demo,0,0,0,021617,13:47:04,5.0.6.0,998754,ethnicity,7,1,5546,"White, non-Hispanic or Latino",1,0,demo,0,0,0,022117,10:10:45,5.0.6.0,999999,practice,1,1,2433,57,1,sample.bmp,orient1,blacksquare2.gif,pic76.bmp,Mask.bmp,022117,10:10:45,5.0.6.0,999999,whiteindirect,4,1,8001,plus1,0,w07.bmp,Judgeindirect,blacksquare2.gif,pic51.bmp,Mask.bmp,022117,10:10:45,5.0.6.0,999999,blackindirect,4,2,833,plus1,0,b12.bmp,Judgeindirect,blacksquare2.gif,pic19.bmp,Mask.bmp,022117,10:10:45,5.0.6.0,999999,neutral,4,3,1287,plus2,0,GREY.bmp,Judgeindirect,blacksquare2.gif,pic5.bmp,Mask.bmp,022117,10:10:45,5.0.6.0,999999,neutral,4,4,1978,minus1,0,GREY.bmp,Judgeindirect,blacksquare2.gif,pic4.bmp,Mask.bmp,022117,10:10:45,5.0.6.0,999999,neutral,4,5,522,minus1,0,GREY.bmp,Judgeindirect,blacksquare2.gif,pic28.bmp,Mask.bmp,022117,10:10:45,5.0.6.0,999999,neutral,4,6,365,minus1,0,GREY.bmp,Judgeindirect,blacksquare2.gif,pic18.bmp,Mask.bmp,022117,10:10:45,5.0.6.0,999999,blackindirect,4,7,958,plus1,0,b06.bmp,Judgeindirect,blacksquare2.gif,pic15.bmp,Mask.bmp,022117,10:10:45,5.0.6.0,999999,blackindirect,4,8,439,plus1,0,b01.bmp,Judgeindirect,blacksquare2.gif,pic73.bmp,Mask.bmp,022117,10:10:45,5.0.6.0,999999,neutral,4,9,1477,minus1,0,GREY.bmp,Judgeindirect,blacksquare2.gif,pic25.bmp,Mask.bmp,022117,10:10:45,5.0.6.0,999999,blackindirect,4,10,1313,plus2,0,b03.bmp,Judgeindirect,blacksquare2.gif,pic58.bmp,Mask.bmp,022117,10:10:45,5.0.6.0,999999,whiteindirect,4,11,691,plus1,0,b11.jpg,Judgeindirect,blacksquare2.gif,pic31.bmp,Mask.bmp,022117,10:10:45,5.0.6.0,999999,whiteindirect,4,12,1031,minus1,0,b12.jpg,Judgeindirect,blacksquare2.gif,pic12.bmp,Mask.bmp,022117,10:10:45,5.0.6.0,999999,whiteindirect,4,13,821,minus2,0,w09.bmp,Judgeindirect,blacksquare2.gif,pic56.bmp,Mask.bmp,022117,10:10:45,5.0.6.0,999999,blackindirect,4,14,636,minus1,0,b11.bmp,Judgeindirect,blacksquare2.gif,pic66.bmp,Mask.bmp,022117,10:10:45,5.0.6.0,999999,whiteindirect,4,15,554,plus1,0,w05.bmp,Judgeindirect,blacksquare2.gif,pic53.bmp,Mask.bmp,022117,10:10:45,5.0.6.0,999999,neutral,4,16,1307,plus2,0,GREY.bmp,Judgeindirect,blacksquare2.gif,pic59.bmp,Mask.bmp,022117,10:10:45,5.0.6.0,999999,blackindirect,4,17,1030,plus1,0,b10.bmp,Judgeindirect,blacksquare2.gif,pic16.bmp,Mask.bmp,022117,10:10:45,5.0.6.0,999999,whiteindirect,4,18,796,minus1,0,w04.bmp,Judgeindirect,blacksquare2.gif,pic52.bmp,Mask.bmp,022117,10:10:45,5.0.6.0,999999,blackindirect,4,19,691,minus2,0,b05.bmp,Judgeindirect,blacksquare2.gif,pic29.bmp,Mask.bmp,022117,10:10:45,5.0.6.0,999999,neutral,4,20,647,minus1,0,GREY.bmp,Judgeindirect,blacksquare2.gif,pic23.bmp,Mask.bmp,022117,10:10:45,5.0.6.0,999999,neutral,4,21,861,plus1,0,GREY.bmp,Judgeindirect,blacksquare2.gif,pic14.bmp,Mask.bmp,022117,10:10:45,5.0.6.0,999999,neutral,4,22,626,plus2,0,GREY.bmp,Judgeindirect,blacksquare2.gif,pic74.bmp,Mask.bmp,022117,10:10:45,5.0.6.0,999999,whiteindirect,4,23,625,plus1,0,w06.bmp,Judgeindirect,blacksquare2.gif,pic3.bmp,Mask.bmp,022117,10:10:45,5.0.6.0,999999,neutral,4,24,616,minus1,0,GREY.bmp,Judgeindirect,blacksquare2.gif,pic54.bmp,Mask.bmp,022117,10:10:45,5.0.6.0,999999,neutral,4,25,575,minus2,0,GREY.bmp,Judgeindirect,blacksquare2.gif,pic7.bmp,Mask.bmp,022117,10:10:45,5.0.6.0,999999,whiteindirect,4,26,839,minus1,0,w02.bmp,Judgeindirect,blacksquare2.gif,pic38.bmp,Mask.bmp,022117,10:10:45,5.0.6.0,999999,whiteindirect,4,27,717,plus1,0,w08.bmp,Judgeindirect,blacksquare2.gif,pic17.bmp,Mask.bmp,022117,10:10:45,5.0.6.0,999999,blackindirect,4,28,592,plus2,0,b02.bmp,Judgeindirect,blacksquare2.gif,pic65.bmp,Mask.bmp,022117,10:10:45,5.0.6.0,999999,whiteindirect,4,29,816,plus1,0,w01.bmp,Judgeindirect,blacksquare2.gif,pic44.bmp,Mask.bmp,022117,10:10:45,5.0.6.0,999999,neutral,4,30,607,minus1,0,GREY.bmp,Judgeindirect,blacksquare2.gif,pic30.bmp,Mask.bmp,022117,10:10:45,5.0.6.0,999999,whiteindirect,4,31,1158,minus2,0,w03.bmp,Judgeindirect,blacksquare2.gif,pic9.bmp,Mask.bmp,022117,10:10:45,5.0.6.0,999999,blackindirect,4,32,543,minus1,0,b04.bmp,Judgeindirect,blacksquare2.gif,pic43.bmp,Mask.bmp,022117,10:10:45,5.0.6.0,999999,blackindirect,4,33,650,plus1,0,b08.bmp,Judgeindirect,blacksquare2.gif,pic41.bmp,Mask.bmp,022117,10:10:45,5.0.6.0,999999,whiteindirect,4,34,359,plus2,0,b10.jpg,Judgeindirect,blacksquare2.gif,pic11.bmp,Mask.bmp,022117,10:10:45,5.0.6.0,999999,whiteindirect,4,35,1537,plus1,0,b11.jpg,Judgeindirect,blacksquare2.gif,pic69.bmp,Mask.bmp,022117,10:10:45,5.0.6.0,999999,blackindirect,4,36,714,minus1,0,b07.bmp,Judgeindirect,blacksquare2.gif,pic64.bmp,Mask.bmp,022117,10:10:45,5.0.6.0,999999,neutral,4,37,829,minus2,0,GREY.bmp,Judgeindirect,blacksquare2.gif,pic13.bmp,Mask.bmp,022117,10:10:45,5.0.6.0,999999,neutral,4,38,531,minus1,0,GREY.bmp,Judgeindirect,blacksquare2.gif,pic60.bmp,Mask.bmp,022117,10:10:45,5.0.6.0,999999,whiteindirect,4,39,493,plus1,0,w09.bmp,Judgeindirect,blacksquare2.gif,pic47.bmp,Mask.bmp,022117,10:10:45,5.0.6.0,999999,neutral,4,40,713,plus2,0,GREY.bmp,Judgeindirect,blacksquare2.gif,pic37.bmp,Mask.bmp,022117,10:10:45,5.0.6.0,999999,blackindirect,4,41,412,plus1,0,b09.bmp,Judgeindirect,blacksquare2.gif,pic57.bmp,Mask.bmp,022117,10:10:45,5.0.6.0,999999,whiteindirect,4,42,531,minus1,0,w04.bmp,Judgeindirect,blacksquare2.gif,pic68.bmp,Mask.bmp,022117,10:10:45,5.0.6.0,999999,blackindirect,4,43,1557,minus2,0,b05.bmp,Judgeindirect,blacksquare2.gif,pic22.bmp,Mask.bmp,022117,10:10:45,5.0.6.0,999999,blackindirect,4,44,614,minus1,0,b03.bmp,Judgeindirect,blacksquare2.gif,pic49.bmp,Mask.bmp,022117,10:10:45,5.0.6.0,999999,blackindirect,4,45,685,plus1,0,b09.bmp,Judgeindirect,blacksquare2.gif,pic39.bmp,Mask.bmp,022117,10:10:45,5.0.6.0,999999,neutral,4,46,521,plus2,0,GREY.bmp,Judgeindirect,blacksquare2.gif,pic71.bmp,Mask.bmp,022117,10:10:45,5.0.6.0,999999,neutral,4,47,396,plus1,0,GREY.bmp,Judgeindirect,blacksquare2.gif,pic8.bmp,Mask.bmp,022117,10:10:45,5.0.6.0,999999,neutral,4,48,492,minus1,0,GREY.bmp,Judgeindirect,blacksquare2.gif,pic50.bmp,Mask.bmp,022117,10:10:45,5.0.6.0,999999,blackindirect,4,49,616,minus2,0,b12.bmp,Judgeindirect,blacksquare2.gif,pic67.bmp,Mask.bmp,022117,10:10:45,5.0.6.0,999999,whiteindirect,4,50,383,minus1,0,w03.bmp,Judgeindirect,blacksquare2.gif,pic10.bmp,Mask.bmp,022117,10:10:45,5.0.6.0,999999,blackindirect,4,51,607,plus1,0,b01.bmp,Judgeindirect,blacksquare2.gif,pic55.bmp,Mask.bmp,022117,10:10:45,5.0.6.0,999999,blackindirect,4,52,311,plus2,0,b04.bmp,Judgeindirect,blacksquare2.gif,pic40.bmp,Mask.bmp,022117,10:10:45,5.0.6.0,999999,whiteindirect,4,53,587,plus1,0,w02.bmp,Judgeindirect,blacksquare2.gif,pic26.bmp,Mask.bmp,022117,10:10:45,5.0.6.0,999999,neutral,4,54,667,minus1,0,GREY.bmp,Judgeindirect,blacksquare2.gif,pic33.bmp,Mask.bmp,022117,10:10:45,5.0.6.0,999999,neutral,4,55,1231,minus2,0,GREY.bmp,Judgeindirect,blacksquare2.gif,pic34.bmp,Mask.bmp,022117,10:10:45,5.0.6.0,999999,blackindirect,4,56,981,minus1,0,b10.bmp,Judgeindirect,blacksquare2.gif,pic45.bmp,Mask.bmp,022117,10:10:45,5.0.6.0,999999,whiteindirect,4,57,637,plus1,0,w06.bmp,Judgeindirect,blacksquare2.gif,pic70.bmp,Mask.bmp,022117,10:10:45,5.0.6.0,999999,whiteindirect,4,58,547,plus2,0,w08.bmp,Judgeindirect,blacksquare2.gif,pic42.bmp,Mask.bmp,022117,10:10:45,5.0.6.0,999999,blackindirect,4,59,485,plus1,0,b02.bmp,Judgeindirect,blacksquare2.gif,pic21.bmp,Mask.bmp,022117,10:10:45,5.0.6.0,999999,neutral,4,60,713,minus1,0,GREY.bmp,Judgeindirect,blacksquare2.gif,pic32.bmp,Mask.bmp,022117,10:10:45,5.0.6.0,999999,neutral,4,61,724,minus2,0,GREY.bmp,Judgeindirect,blacksquare2.gif,pic63.bmp,Mask.bmp,022117,10:10:45,5.0.6.0,999999,blackindirect,4,62,782,minus1,0,b06.bmp,Judgeindirect,blacksquare2.gif,pic61.bmp,Mask.bmp,022117,10:10:45,5.0.6.0,999999,whiteindirect,4,63,758,plus1,0,w01.bmp,Judgeindirect,blacksquare2.gif,pic48.bmp,Mask.bmp,022117,10:10:45,5.0.6.0,999999,whiteindirect,4,64,720,plus2,0,b12.jpg,Judgeindirect,blacksquare2.gif,pic36.bmp,Mask.bmp,022117,10:10:45,5.0.6.0,999999,whiteindirect,4,65,706,plus1,0,w05.bmp,Judgeindirect,blacksquare2.gif,pic6.bmp,Mask.bmp,022117,10:10:45,5.0.6.0,999999,blackindirect,4,66,998,minus1,0,b08.bmp,Judgeindirect,blacksquare2.gif,pic1.bmp,Mask.bmp,022117,10:10:45,5.0.6.0,999999,neutral,4,67,597,minus2,0,GREY.bmp,Judgeindirect,blacksquare2.gif,pic2.bmp,Mask.bmp,022117,10:10:45,5.0.6.0,999999,blackindirect,4,68,532,minus1,0,b11.bmp,Judgeindirect,blacksquare2.gif,pic46.bmp,Mask.bmp,022117,10:10:45,5.0.6.0,999999,blackindirect,4,69,999,plus1,0,b07.bmp,Judgeindirect,blacksquare2.gif,pic20.bmp,Mask.bmp,022117,10:10:45,5.0.6.0,999999,whiteindirect,4,70,686,plus2,0,w07.bmp,Judgeindirect,blacksquare2.gif,pic27.bmp,Mask.bmp,022117,10:10:45,5.0.6.0,999999,whiteindirect,4,71,1002,plus1,0,b10.jpg,Judgeindirect,blacksquare2.gif,pic62.bmp,Mask.bmp,022117,10:10:45,5.0.6.0,999999,neutral,4,72,10232,minus1,0,GREY.bmp,Judgeindirect,blacksquare2.gif,pic24.bmp,Mask.bmp,022117,10:10:45,5.0.6.0,999999,blackdirect,6,1,1849,minus2,0,b03.bmp,Judgedirect,blacksquare2.gif,pic80.bmp,Mask.b022117,10:13:3622117,10:13:36,5.0.6.0,188888888,whitedirect,4,2,667,plus1,0,w02.bmp,Judgedirect,blacksquare2.gif,pic82.bmp,Mask.bmp,022117,10:13:36,5.0.6.0,188888888,blackdirect,4,3,295,plus1,0,b04.bmp,Judgedirect,blacksquare2.gif,pic81.bmp,Mask.bmp,022117,10:13:36,5.0.6.0,188888888,whitedirect,4,4,355,plus1,0,w03.bmp,Judgedirect,blacksquare2.gif,pic113.bmp,Mask.bmp,022117,10:13:36,5.0.6.0,188888888,blackdirect,4,5,356,plus1,0,b06.bmp,Judgedirect,blacksquare2.gif,pic109.bmp,Mask.bmp,022117,10:13:36,5.0.6.0,188888888,whitedirect,4,6,453,plus1,0,w01.bmp,Judgedirect,blacksquare2.gif,pic112.bmp,Mask.bmp,022117,10:13:36,5.0.6.0,188888888,blackdirect,4,7,378,plus1,0,b12.bmp,Judgedirect,blacksquare2.gif,pic111.bmp,Mask.bmp,022117,10:13:36,5.0.6.0,188888888,whitedirect,4,8,387,plus1,0,w07.bmp,Judgedirect,blacksquare2.gif,pic118.bmp,Mask.bmp,022117,10:13:36,5.0.6.0,188888888,blackdirect,4,9,363,plus1,0,b01.bmp,Judgedirect,blacksquare2.gif,pic101.bmp,Mask.bmp,022117,10:13:36,5.0.6.0,188888888,whitedirect,4,10,452,plus1,0,w09.bmp,Judgedirect,blacksquare2.gif,pic80.bmp,Mask.bmp,022117,10:13:36,5.0.6.0,188888888,blackdirect,4,11,385,plus1,0,b11.bmp,Judgedirect,blacksquare2.gif,pic105.bmp,Mask.bmp,022117,10:13:36,5.0.6.0,188888888,whitedirect,4,12,385,plus1,0,w05.bmp,Judgedirect,blacksquare2.gif,pic103.bmp,Mask.bmp,022117,10:13:36,5.0.6.0,188888888,blackdirect,4,13,224,plus1,0,b08.bmp,Judgedirect,blacksquare2.gif,pic79.bmp,Mask.bmp,022117,10:13:36,5.0.6.0,188888888,whitedirect,4,14,126,plus1,0,b10.jpg,Judgedirect,blacksquare2.gif,pic78.bmp,Mask.bmp,022117,10:13:36,5.0.6.0,188888888,blackdirect,4,15,145,plus1,0,b03.bmp,Judgedirect,blacksquare2.gif,pic115.bmp,Mask.bmp,022117,10:13:36,5.0.6.0,188888888,whitedirect,4,16,156,plus1,0,b11.jpg,Judgedirect,blacksquare2.gif,pic110.bmp,Mask.bmp,022117,10:13:36,5.0.6.0,188888888,blackdirect,4,17,413,plus1,0,b07.bmp,Judgedirect,blacksquare2.gif,pic117.bmp,Mask.bmp,022117,10:13:36,5.0.6.0,188888888,whitedirect,4,18,428,plus1,0,w08.bmp,Judgedirect,blacksquare2.gif,pic100.bmp,Mask.bmp,022117,10:13:36,5.0.6.0,188888888,blackdirect,4,19,419,plus1,0,b10.bmp,Judgedirect,blacksquare2.gif,pic102.bmp,Mask.bmp,022117,10:13:36,5.0.6.0,188888888,whitedirect,4,20,681,plus1,0,b12.jpg,Judgedirect,blacksquare2.gif,pic108.bmp,Mask.bmp,022117,10:13:36,5.0.6.0,188888888,blackdirect,4,21,413,plus1,0,b05.bmp,Judgedirect,blacksquare2.gif,pic114.bmp,Mask.bmp,022117,10:13:36,5.0.6.0,188888888,whitedirect,4,22,332,plus1,0,w04.bmp,Judgedirect,blacksquare2.gif,pic104.bmp,Mask.bmp,022117,10:13:36,5.0.6.0,188888888,blackdirect,4,23,439,plus1,0,b09.bmp,Judgedirect,blacksquare2.gif,pic107.bmp,Mask.bmp,022117,10:13:36,5.0.6.0,188888888,whitedirect,4,24,612,plus1,0,w06.bmp,Judgedirect,blacksquare2.gif,pic106.bmp,Mask.bmp,022117,10:13:36,5.0.6.0,188888888,neutral,6,1,1878,plus1,0,GREY.bmp,Judgeindirect,blacksquare2.gif,pic46.bmp,Mask.bmp,022117,10:13:36,5.0.6.0,188888888,neutral,6,2,488,plus1,0,GREY.bmp,Judgeindirect,blacksquare2.gif,pic11.bmp,Mask.bmp,022117,10:13:36,5.0.6.0,188888888,blackindirect,6,3,475,plus1,0,b02.bmp,Judgeindirect,blacksquare2.gif,pic34.bmp,Mask.bmp,022117,10:13:36,5.0.6.0,188888888,whiteindirect,6,4,391,plus1,0,w04.bmp,Judgeindirect,blacksquare2.gif,pic59.bmp,Mask.bmp,022117,10:13:36,5.0.6.0,188888888,blackindirect,6,5,343,plus1,0,b06.bmp,Judgeindirect,blacksquare2.gif,pic39.bmp,Mask.bmp,022117,10:13:36,5.0.6.0,188888888,neutral,6,6,465,plus1,0,GREY.bmp,Judgeindirect,blacksquare2.gif,pic24.bmp,Mask.bmp,022117,10:13:36,5.0.6.0,188888888,blackindirect,6,7,446,plus1,0,b03.bmp,Judgeindirect,blacksquare2.gif,pic21.bmp,Mask.bmp,022117,10:13:36,5.0.6.0,188888888,blackindirect,6,8,404,plus1,0,b11.bmp,Judgeindirect,blacksquare2.gif,pic28.bmp,Mask.bmp,022117,10:13:36,5.0.6.0,188888888,whiteindirect,6,9,395,plus1,0,w06.bmp,Judgeindirect,blacksquare2.gif,pic57.bmp,Mask.bmp,022117,10:13:36,5.0.6.0,188888888,whiteindirect,6,10,393,plus1,0,w05.bmp,Judgeindirect,blacksquare2.gif,pic67.bmp,Mask.bmp,022117,10:13:36,5.0.6.0,188888888,blackindirect,6,11,537,plus1,0,b01.bmp,Judgeindirect,blacksquare2.gif,pic4.bmp,Mask.bmp,022117,10:13:36,5.0.6.0,188888888,blackindirect,6,12,194,plus1,0,b08.bmp,Judgeindirect,blacksquare2.gif,pic61.bmp,Mask.bmp,022117,10:13:36,5.0.6.0,188888888,whiteindirect,6,13,171,plus1,0,w03.bmp,Judgeindirect,blacksquare2.gif,pic31.bmp,Mask.bmp,022117,10:13:36,5.0.6.0,188888888,whiteindirect,6,14,163,plus1,0,b10.jpg,Judgeindirect,blacksquare2.gif,pic75.bmp,Mask.bmp,022117,10:13:36,5.0.6.0,188888888,whiteindirect,6,15,213,plus1,0,b11.jpg,Judgeindirect,blacksquare2.gif,pic25.bmp,Mask.bmp,022117,10:13:36,5.0.6.0,188888888,blackindirect,6,16,908,plus1,0,b12.bmp,Judgeindirect,blacksquare2.gif,pic2.bmp,Mask.bmp,022117,10:13:36,5.0.6.0,188888888,neutral,6,17,279,plus1,0,GREY.bmp,Judgeindirect,blacksquare2.gif,pic72.bmp,Mask.bmp,022117,10:13:36,5.0.6.0,188888888,blackindirect,6,18,651,plus1,0,b07.bmp,Judgeindirect,blacksquare2.gif,pic60.bmp,Mask.bmp,022117,10:13:36,5.0.6.0,188888888,whiteindirect,6,19,584,plus1,0,w09.bmp,Judgeindirect,blacksquare2.gif,pic13.bmp,Mask.bmp,022117,10:13:36,5.0.6.0,188888888,neutral,6,20,640,plus1,0,GREY.bmp,Judgeindirect,blacksquare2.gif,pic18.bmp,Mask.bmp,022117,10:13:36,5.0.6.0,188888888,neutral,6,21,509,plus1,0,GREY.bmp,Judgeindirect,blacksquare2.gif,pic70.bmp,Mask.bmp,022117,10:13:36,5.0.6.0,188888888,whiteindirect,6,22,632,plus1,0,w02.bmp,Judgeindirect,blacksquare2.gif,pic27.bmp,Mask.bmp,022117,10:13:36,5.0.6.0,188888888,blackindirect,6,23,910,plus1,0,b10.bmp,Judgeindirect,blacksquare2.gif,pic12.bmp,Mask.bmp,022117,10:13:36,5.0.6.0,188888888,neutral,6,24,1552,plus1,0,GREY.bmp,Judgeindirect,blacksquare2.gif,pic71.bmp,Mask.bmp,022117,10:13:36,5.0.6.0,188888888,whiteindirect,6,25,727,plus1,0,w01.bmp,Judgeindirect,blacksquare2.gif,pic10.bmp,Mask.bmp,022117,10:13:36,5.0.6.0,188888888,blackindirect,6,26,1697,plus1,0,b04.bmp,Judgeindirect,blacksquare2.gif,pic74.bmp,Mask.bmp,022117,10:13:36,5.0.6.0,188888888,whiteindirect,6,27,554,plus1,0,b12.jpg,Judgeindirect,blacksquare2.gif,pic33.bmp,Mask.bmp,022117,10:13:36,5.0.6.0,188888888,whiteindirect,6,28,355,plus1,0,w07.bmp,Judgeindirect,blacksquare2.gif,pic50.bmp,Mask.bmp,022117,10:13:36,5.0.6.0,188888888,whiteindirect,6,29,996,plus1,0,w08.bmp,Judgeindirect,blacksquare2.gif,pic9.bmp,Mask.bmp,022117,10:13:36,5.0.6.0,188888888,neutral,6,30,347,plus1,0,GREY.bmp,Judgeindirect,blacksquare2.gif,pic32.bmp,Mask.bmp,022117,10:13:36,5.0.6.0,188888888,whiteindirect,6,31,701,plus1,0,w01.bmp,Judgeindirect,blacksquare2.gif,pic20.bmp,Mask.bmp,022117,10:13:36,5.0.6.0,188888888,neutral,6,32,360,plus1,0,GREY.bmp,Judgeindirect,blacksquare2.gif,pic38.bmp,Mask.bmp,022117,10:13:36,5.0.6.0,188888888,neutral,6,33,201,plus1,0,GREY.bmp,Judgeindirect,blacksquare2.gif,pic23.bmp,Mask.bmp,022117,10:13:36,5.0.6.0,188888888,blackindirect,6,34,185,plus1,0,b05.bmp,Judgeindirect,blacksquare2.gif,pic49.bmp,Mask.bmp,022117,10:13:36,5.0.6.0,188888888,blackindirect,6,35,153,plus1,0,b09.bmp,Judgeindirect,blacksquare2.gif,pic56.bmp,Mask.bmp,022117,10:13:36,5.0.6.0,188888888,whiteindirect,6,36,346,plus1,0,w02.bmp,Judgeindirect,blacksquare2.gif,pic73.bmp,Mask.bmp,022117,10:13:36,5.0.6.0,188888888,neutral,6,37,276,plus1,0,GREY.bmp,Judgeindirect,blacksquare2.gif,pic48.bmp,Mask.bmp,022117,10:13:36,5.0.6.0,188888888,whiteindirect,6,38,361,plus1,0,b10.jpg,Judgeindirect,blacksquare2.gif,pic37.bmp,Mask.bmp,022117,10:13:36,5.0.6.0,188888888,neutral,6,39,258,plus1,0,GREY.bmp,Judgeindirect,blacksquare2.gif,pic30.bmp,Mask.bmp,022117,10:13:36,5.0.6.0,188888888,whiteindirect,6,40,191,plus1,0,w09.bmp,Judgeindirect,blacksquare2.gif,pic53.bmp,Mask.bmp,022117,10:13:36,5.0.6.0,188888888,neutral,6,41,176,plus1,0,GREY.bmp,Judgeindirect,blacksquare2.gif,pic43.bmp,Mask.bmp,022117,10:13:36,5.0.6.0,188888888,blackindirect,6,42,136,plus1,0,b11.bmp,Judgeindirect,blacksquare2.gif,pic64.bmp,Mask.bmp,022117,10:13:36,5.0.6.0,188888888,whiteindirect,6,43,19,plus1,0,b11.jpg,Judgeindirect,blacksquare2.gif,pic63.bmp,Mask.bmp,022117,10:13:36,5.0.6.0,188888888,neutral,6,44,146,plus1,0,GREY.bmp,Judgeindirect,blacksquare2.gif,pic55.bmp,Mask.bmp,022117,10:13:36,5.0.6.0,188888888,blackindirect,6,45,84,plus1,0,b03.bmp,Judgeindirect,blacksquare2.gif,pic69.bmp,Mask.bmp,022117,10:13:36,5.0.6.0,188888888,whiteindirect,6,46,329,plus1,0,w08.bmp,Judgeindirect,blacksquare2.gif,pic26.bmp,Mask.bmp,022117,10:13:36,5.0.6.0,188888888,neutral,6,47,371,plus1,0,GREY.bmp,Judgeindirect,blacksquare2.gif,pic19.bmp,Mask.bmp,022117,10:13:36,5.0.6.0,188888888,neutral,6,48,244,plus1,0,GREY.bmp,Judgeindirect,blacksquare2.gif,pic1.bmp,Mask.bmp,022117,10:13:36,5.0.6.0,188888888,neutral,6,49,194,plus1,0,GREY.bmp,Judgeindirect,blacksquare2.gif,pic65.bmp,Mask.bmp,022117,10:13:36,5.0.6.0,188888888,blackindirect,6,50,250,plus1,0,b07.bmp,Judgeindirect,blacksquare2.gif,pic3.bmp,Mask.bmp,022117,10:13:36,5.0.6.0,188888888,whiteindirect,6,51,128,plus1,0,w07.bmp,Judgeindirect,blacksquare2.gif,pic40.bmp,Mask.bmp,022117,10:13:36,5.0.6.0,188888888,neutral,6,52,939,plus1,0,GREY.bmp,Judgeindirect,blacksquare2.gif,pic44.bmp,Mask.bmp,022117,10:13:36,5.0.6.0,188888888,blackindirect,6,53,300,plus1,0,b05.bmp,Judgeindirect,blacksquare2.gif,pic7.bmp,Mask.bmp,022117,10:13:36,5.0.6.0,188888888,whiteindirect,6,54,88,plus1,0,w04.bmp,Judgeindirect,blacksquare2.gif,pic54.bmp,Mask.bmp,022117,10:13:36,5.0.6.0,188888888,blackindirect,6,55,452,plus1,0,b06.bmp,Judgeindirect,blacksquare2.gif,pic45.bmp,Mask.bmp,022117,10:13:36,5.0.6.0,188888888,blackindirect,6,56,185,plus1,0,b04.bmp,Judgeindirect,blacksquare2.gif,pic36.bmp,Mask.bmp,022117,10:13:36,5.0.6.0,188888888,whiteindirect,6,57,249,plus1,0,w05.bmp,Judgeindirect,blacksquare2.gif,pic6.bmp,Mask.bmp,022117,10:13:36,5.0.6.0,188888888,neutral,6,58,327,plus1,0,GREY.bmp,Judgeindirect,blacksquare2.gif,pic16.bmp,Mask.bmp,022117,10:13:36,5.0.6.0,188888888,blackindirect,6,59,162,plus1,0,b02.bmp,Judgeindirect,blacksquare2.gif,pic5.bmp,Mask.bmp,022117,10:13:36,5.0.6.0,188888888,whiteindirect,6,60,171,plus1,0,w03.bmp,Judgeindirect,blacksquare2.gif,pic42.bmp,Mask.bmp,022117,10:13:36,5.0.6.0,188888888,blackindirect,6,61,300,plus1,0,b08.bmp,Judgeindirect,blacksquare2.gif,pic17.bmp,Mask.bmp,022117,10:13:36,5.0.6.0,188888888,whiteindirect,6,62,232,plus1,0,b12.jpg,Judgeindirect,blacksquare2.gif,pic15.bmp,Mask.bmp,022117,10:13:36,5.0.6.0,188888888,neutral,6,63,191,plus1,0,GREY.bmp,Judgeindirect,blacksquare2.gif,pic41.bmp,Mask.bmp,022117,10:13:36,5.0.6.0,188888888,blackindirect,6,64,71,plus1,0,b12.bmp,Judgeindirect,blacksquare2.gif,pic58.bmp,Mask.bmp,022117,10:13:36,5.0.6.0,188888888,neutral,6,65,332,plus1,0,GREY.bmp,Judgeindirect,blacksquare2.gif,pic8.bmp,Mask.bmp,022117,10:13:36,5.0.6.0,188888888,neutral,6,66,255,plus1,0,GREY.bmp,Judgeindirect,blacksquare2.gif,pic47.bmp,Mask.bmp,022117,10:13:36,5.0.6.0,188888888,blackindirect,6,67,84,plus1,0,b10.bmp,Judgeindirect,blacksquare2.gif,pic52.bmp,Mask.bmp,022117,10:13:36,5.0.6.0,188888888,whiteindirect,6,68,137,plus1,0,w06.bmp,Judgeindirect,blacksquare2.gif,pic51.bmp,Mask.bmp,022117,10:13:36,5.0.6.0,188888888,neutral,6,69,115,plus1,0,GREY.bmp,Judgeindirect,blacksquare2.gif,pic29.bmp,Mask.bmp,022117,10:13:36,5.0.6.0,188888888,blackindirect,6,70,135,plus1,0,b09.bmp,Judgeindirect,blacksquare2.gif,pic14.bmp,Mask.bmp,022117,10:13:36,5.0.6.0,188888888,blackindirect,6,71,377,plus1,0,b01.bmp,Judgeindirect,blacksquare2.gif,pic68.bmp,Mask.bmp,022117,10:13:36,5.0.6.0,188888888,neutral,6,72,1097,plus1,0,GREY.bmp,Judgeindirect,blacksquare2.gif,pic66.bmp,Mask.bmp,022117,10:13:36,5.0.6.0,188888888,gender,7,1,8098,2,1,0,demo,0,0,0,022117,10:13:36,5.0.6.0,188888888,age,7,1,8098,21,1,0,demo,0,0,0,022117,10:13:36,5.0.6.0,188888888,ethnicity,7,1,8098,Latino or Hispanic,1,0,demo,0,0,0,022117,10:31:19,5.0.6.0,1,practice,1,1,5566,57,1,sample.bmp,orient1,blacksquare2.gif,pic76.bmp,Mask.bmp,022117,10:31:19,5.0.6.0,1,whitedirect,4,1,7306,plus1,0,w03.bmp,Judgedirect,blacksquare2.gif,pic106.bmp,Mask.bmp,022117,10:31:19,5.0.6.0,1,blackdirect,4,2,1582,plus1,0,b02.bmp,Judgedirect,blacksquare2.gif,pic113.bmp,Mask.bmp,022117,10:31:19,5.0.6.0,1,whitedirect,4,3,3925,minus1,0,w09.bmp,Judgedirect,blacksquare2.gif,pic114.bmp,Mask.bmp,022117,10:31:19,5.0.6.0,1,blackdirect,4,4,1892,minus1,0,b08.bmp,Judgedirect,blacksquare2.gif,pic81.bmp,Mask.bmp,022117,10:31:19,5.0.6.0,1,whitedirect,4,5,3367,minus1,0,w01.bmp,Judgedirect,blacksquare2.gif,pic79.bmp,Mask.bmp,022117,10:31:19,5.0.6.0,1,blackdirect,4,6,4396,minus1,0,b07.bmp,Judgedirect,blacksquare2.gif,pic105.bmp,Mask.bmp,022117,10:31:19,5.0.6.0,1,whitedirect,4,7,3816,minus1,0,b12.jpg,Judgedirect,blacksquare2.gif,pic80.bmp,Mask.bmp,022117,10:31:19,5.0.6.0,1,blackdirect,4,8,2491,minus1,0,b12.bmp,Judgedirect,blacksquare2.gif,pic101.bmp,Mask.bmp,022117,10:31:19,5.0.6.0,1,whitedirect,4,9,3205,minus1,0,w08.bmp,Judgedirect,blacksquare2.gif,pic100.bmp,Mask.bmp,022117,10:31:19,5.0.6.0,1,blackdirect,4,10,1810,minus2,0,b10.bmp,Judgedirect,blacksquare2.gif,pic104.bmp,Mask.bmp,022117,10:31:19,5.0.6.0,1,whitedirect,4,11,1760,minus1,0,w04.bmp,Judgedirect,blacksquare2.gif,pic103.bmp,Mask.bmp,022117,10:31:19,5.0.6.0,1,blackdirect,4,12,1560,plus1,0,b09.bmp,Judgedirect,blacksquare2.gif,pic117.bmp,Mask.bmp,022117,10:31:19,5.0.6.0,1,whitedirect,4,13,2641,minus1,0,b10.jpg,Judgedirect,blacksquare2.gif,pic102.bmp,Mask.bmp,022117,10:31:19,5.0.6.0,1,blackdirect,4,14,949,minus1,0,b01.bmp,Judgedirect,blacksquare2.gif,pic116.bmp,Mask.bmp,022117,10:31:19,5.0.6.0,1,whitedirect,4,15,1790,minus1,0,w07.bmp,Judgedirect,blacksquare2.gif,pic109.bmp,Mask.bmp,022117,10:31:19,5.0.6.0,1,blackdirect,4,16,1293,plus1,0,b03.bmp,Judgedirect,blacksquare2.gif,pic108.bmp,Mask.bmp,022117,10:31:19,5.0.6.0,1,whitedirect,4,17,816,plus1,0,w06.bmp,Judgedirect,blacksquare2.gif,pic111.bmp,Mask.bmp,022117,10:31:19,5.0.6.0,1,blackdirect,4,18,663,plus1,0,b06.bmp,Judgedirect,blacksquare2.gif,pic118.bmp,Mask.bmp,022117,10:31:19,5.0.6.0,1,whitedirect,4,19,1939,minus1,0,b11.jpg,Judgedirect,blacksquare2.gif,pic78.bmp,Mask.bmp,022117,10:31:19,5.0.6.0,1,blackdirect,4,20,2324,minus1,0,b04.bmp,Judgedirect,blacksquare2.gif,pic115.bmp,Mask.bmp,022117,10:31:19,5.0.6.0,1,whitedirect,4,21,1117,plus1,0,w02.bmp,Judgedirect,blacksquare2.gif,pic82.bmp,Mask.bmp,022117,10:31:19,5.0.6.0,1,blackdirect,4,22,4543,minus1,0,b05.bmp,Judgedirect,blacksquare2.gif,pic112.bmp,Mask.bmp,022117,10:31:19,5.0.6.0,1,whitedirect,4,23,949,plus1,0,w05.bmp,Judgedirect,blacksquare2.gif,pic107.bmp,Mask.bmp,022117,10:31:19,5.0.6.0,1,blackdirect,4,24,2270,plus1,0,b11.bmp,Judgedirect,blacksquare2.gif,pic110.bmp,Mask.bmp,022117,10:31:19,5.0.6.0,1,neutral,6,1,1798,plus1,0,GREY.bmp,Judgeindirect,blacksquare2.gif,pic55.bmp,Mask.bmp,022117,10:31:19,5.0.6.0,1,blackindirect,6,2,2508,plus1,0,b03.bmp,Judgeindirect,blacksquare2.gif,pic47.bmp,Mask.bmp,022117,10:31:19,5.0.6.0,1,whiteindirect,6,3,1470,plus2,0,w08.bmp,Judgeindirect,blacksquare2.gif,pic29.bmp,Mask.bmp,022117,10:31:19,5.0.6.0,1,whiteindirect,6,4,2881,plus1,0,b12.jpg,Judgeindirect,blacksquare2.gif,pic59.bmp,Mask.bmp,022117,10:31:19,5.0.6.0,1,blackindirect,6,5,1459,plus1,0,b10.bmp,Judgeindirect,blacksquare2.gif,pic31.bmp,Mask.bmp,022117,10:31:19,5.0.6.0,1,whiteindirect,6,6,2120,plus1,0,w06.bmp,Judgeindirect,blacksquare2.gif,pic69.bmp,Mask.bmp,022117,10:31:19,5.0.6.0,1,whiteindirect,6,7,3481,plus1,0,w01.bmp,Judgeindirect,blacksquare2.gif,pic28.bmp,Mask.bmp,022117,10:31:19,5.0.6.0,1,blackindirect,6,8,1226,plus1,0,b02.bmp,Judgeindirect,blacksquare2.gif,pic57.bmp,Mask.bmp,022117,10:31:19,5.0.6.0,1,neutral,6,9,4840,plus2,0,GREY.bmp,Judgeindirect,blacksquare2.gif,pic38.bmp,Mask.bmp,022117,10:31:19,5.0.6.0,1,blackindirect,6,10,1562,plus1,0,b07.bmp,Judgeindirect,blacksquare2.gif,pic7.bmp,Mask.bmp,022117,10:31:19,5.0.6.0,1,blackindirect,6,11,1530,plus1,0,b11.bmp,Judgeindirect,blacksquare2.gif,pic5.bmp,Mask.bmp,022117,10:31:19,5.0.6.0,1,whiteindirect,6,12,2051,plus1,0,w09.bmp,Judgeindirect,blacksquare2.gif,pic73.bmp,Mask.bmp,022117,10:31:19,5.0.6.0,1,neutral,6,13,8799,plus1,0,GREY.bmp,Judgeindirect,blacksquare2.gif,pic26.bmp,Mask.bmp,022117,10:31:19,5.0.6.0,1,blackindirect,6,14,2366,plus1,0,b08.bmp,Judgeindirect,blacksquare2.gif,pic25.bmp,Mask.bmp,022117,10:31:19,5.0.6.0,1,neutral,6,15,2021,plus1,0,GREY.bmp,Judgeindirect,blacksquare2.gif,pic60.bmp,Mask.bmp,022117,10:31:19,5.0.6.0,1,whiteindirect,6,16,1474,plus1,0,w05.bmp,Judgeindirect,blacksquare2.gif,pic20.bmp,Mask.bmp,022117,10:31:19,5.0.6.0,1,blackindirect,6,17,1478,plus2,0,b01.bmp,Judgeindirect,blacksquare2.gif,pic18.bmp,Mask.bmp,022117,10:31:19,5.0.6.0,1,whiteindirect,6,18,1682,plus2,0,w07.bmp,Judgeindirect,blacksquare2.gif,pic17.bmp,Mask.bmp,022117,10:31:19,5.0.6.0,1,whiteindirect,6,19,1821,plus1,0,w03.bmp,Judgeindirect,blacksquare2.gif,pic34.bmp,Mask.bmp,022117,10:31:19,5.0.6.0,1,whiteindirect,6,20,1826,plus1,0,b10.jpg,Judgeindirect,blacksquare2.gif,pic6.bmp,Mask.bmp,022117,10:31:19,5.0.6.0,1,blackindirect,6,21,2072,plus1,0,b09.bmp,Judgeindirect,blacksquare2.gif,pic14.bmp,Mask.bmp,022117,10:31:19,5.0.6.0,1,whiteindirect,6,22,1371,plus1,0,b11.jpg,Judgeindirect,blacksquare2.gif,pic51.bmp,Mask.bmp,022117,10:31:19,5.0.6.0,1,neutral,6,23,1787,plus1,0,GREY.bmp,Judgeindirect,blacksquare2.gif,pic27.bmp,Mask.bmp,022117,10:31:19,5.0.6.0,1,neutral,6,24,1202,plus1,0,GREY.bmp,Judgeindirect,blacksquare2.gif,pic3.bmp,Mask.bmp,022117,10:31:19,5.0.6.0,1,blackindirect,6,25,1720,minus1,0,b04.bmp,Judgeindirect,blacksquare2.gif,pic71.bmp,Mask.bmp,022117,10:31:19,5.0.6.0,1,neutral,6,26,2002,plus1,0,GREY.bmp,Judgeindirect,blacksquare2.gif,pic9.bmp,Mask.bmp,022117,10:31:19,5.0.6.0,1,blackindirect,6,27,784,plus1,0,b12.bmp,Judgeindirect,blacksquare2.gif,pic43.bmp,Mask.bmp,022117,10:31:19,5.0.6.0,1,whiteindirect,6,28,720,plus1,0,w04.bmp,Judgeindirect,blacksquare2.gif,pic33.bmp,Mask.bmp,022117,10:31:19,5.0.6.0,1,blackindirect,6,29,1043,plus1,0,b06.bmp,Judgeindirect,blacksquare2.gif,pic44.bmp,Mask.bmp,022117,10:31:19,5.0.6.0,1,neutral,6,30,1096,plus1,0,GREY.bmp,Judgeindirect,blacksquare2.gif,pic12.bmp,Mask.bmp,022117,10:31:19,5.0.6.0,1,whiteindirect,6,31,883,plus1,0,w02.bmp,Judgeindirect,blacksquare2.gif,pic19.bmp,Mask.bmp,022117,10:31:19,5.0.6.0,1,whiteindirect,6,32,759,plus1,0,w02.bmp,Judgeindirect,blacksquare2.gif,pic13.bmp,Mask.bmp,022117,10:31:19,5.0.6.0,1,blackindirect,6,33,865,plus1,0,b05.bmp,Judgeindirect,blacksquare2.gif,pic46.bmp,Mask.bmp,022117,10:31:19,5.0.6.0,1,whiteindirect,6,34,1269,plus1,0,w06.bmp,Judgeindirect,blacksquare2.gif,pic22.bmp,Mask.bmp,022117,10:31:19,5.0.6.0,1,neutral,6,35,1393,plus1,0,GREY.bmp,Judgeindirect,blacksquare2.gif,pic50.bmp,Mask.bmp,022117,10:31:19,5.0.6.0,1,neutral,6,36,1065,plus1,0,GREY.bmp,Judgeindirect,blacksquare2.gif,pic40.bmp,Mask.bmp,022117,10:31:19,5.0.6.0,1,whiteindirect,6,37,1181,plus1,0,w09.bmp,Judgeindirect,blacksquare2.gif,pic42.bmp,Mask.bmp,022117,10:31:19,5.0.6.0,1,neutral,6,38,1140,plus1,0,GREY.bmp,Judgeindirect,blacksquare2.gif,pic16.bmp,Mask.bmp,022117,10:31:19,5.0.6.0,1,neutral,6,39,1054,plus1,0,GREY.bmp,Judgeindirect,blacksquare2.gif,pic4.bmp,Mask.bmp,022117,10:31:19,5.0.6.0,1,blackindirect,6,40,1179,plus1,0,b03.bmp,Judgeindirect,blacksquare2.gif,pic41.bmp,Mask.bmp,022117,10:31:19,5.0.6.0,1,blackindirect,6,41,995,plus1,0,b08.bmp,Judgeindirect,blacksquare2.gif,pic58.bmp,Mask.bmp,022117,10:31:19,5.0.6.0,1,blackindirect,6,42,1778,plus1,0,b05.bmp,Judgeindirect,blacksquare2.gif,pic30.bmp,Mask.bmp,022117,10:31:19,5.0.6.0,1,whiteindirect,6,43,3258,plus1,0,b11.jpg,Judgeindirect,blacksquare2.gif,pic63.bmp,Mask.bmp,022117,10:31:19,5.0.6.0,1,neutral,6,44,956,plus1,0,GREY.bmp,Judgeindirect,blacksquare2.gif,pic75.bmp,Mask.bmp,022117,10:31:19,5.0.6.0,1,blackindirect,6,45,2093,minus2,0,b07.bmp,Judgeindirect,blacksquare2.gif,pic62.bmp,Mask.bmp,022117,10:31:19,5.0.6.0,1,neutral,6,46,1304,plus1,0,GREY.bmp,Judgeindirect,blacksquare2.gif,pic45.bmp,Mask.bmp,022117,10:31:19,5.0.6.0,1,neutral,6,47,907,plus1,0,GREY.bmp,Judgeindirect,blacksquare2.gif,pic72.bmp,Mask.bmp,022117,10:31:19,5.0.6.0,1,neutral,6,48,678,plus1,0,GREY.bmp,Judgeindirect,blacksquare2.gif,pic15.bmp,Mask.bmp,022117,10:31:19,5.0.6.0,1,whiteindirect,6,49,1107,plus1,0,w04.bmp,Judgeindirect,blacksquare2.gif,pic37.bmp,Mask.bmp,022117,10:31:19,5.0.6.0,1,whiteindirect,6,50,1269,minus1,0,w01.bmp,Judgeindirect,blacksquare2.gif,pic8.bmp,Mask.bmp,022117,10:31:19,5.0.6.0,1,neutral,6,51,946,plus1,0,GREY.bmp,Judgeindirect,blacksquare2.gif,pic21.bmp,Mask.bmp,022117,10:31:19,5.0.6.0,1,whiteindirect,6,52,1699,plus1,0,w03.bmp,Judgeindirect,blacksquare2.gif,pic39.bmp,Mask.bmp,022117,10:31:19,5.0.6.0,1,whiteindirect,6,53,1141,plus1,0,b10.jpg,Judgeindirect,blacksquare2.gif,pic48.bmp,Mask.bmp,022117,10:31:19,5.0.6.0,1,blackindirect,6,54,1239,plus1,0,b02.bmp,Judgeindirect,blacksquare2.gif,pic65.bmp,Mask.bmp,022117,10:31:19,5.0.6.0,1,blackindirect,6,55,2356,plus1,0,b10.bmp,Judgeindirect,blacksquare2.gif,pic32.bmp,Mask.bmp,022117,10:31:19,5.0.6.0,1,neutral,6,56,812,plus1,0,GREY.bmp,Judgeindirect,blacksquare2.gif,pic1.bmp,Mask.bmp,022117,10:31:19,5.0.6.0,1,whiteindirect,6,57,2090,minus1,0,w05.bmp,Judgeindirect,blacksquare2.gif,pic10.bmp,Mask.bmp,022117,10:31:19,5.0.6.0,1,neutral,6,58,1669,plus1,0,GREY.bmp,Judgeindirect,blacksquare2.gif,pic53.bmp,Mask.bmp,022117,10:31:19,5.0.6.0,1,neutral,6,59,720,plus1,0,GREY.bmp,Judgeindirect,blacksquare2.gif,pic23.bmp,Mask.bmp,022117,10:31:19,5.0.6.0,1,whiteindirect,6,60,1347,minus1,0,w08.bmp,Judgeindirect,blacksquare2.gif,pic2.bmp,Mask.bmp,022117,10:31:19,5.0.6.0,1,blackindirect,6,61,1012,minus1,0,b11.bmp,Judgeindirect,blacksquare2.gif,pic52.bmp,Mask.bmp,022117,10:31:19,5.0.6.0,1,neutral,6,62,898,plus1,0,GREY.bmp,Judgeindirect,blacksquare2.gif,pic66.bmp,Mask.bmp,022117,10:31:19,5.0.6.0,1,blackindirect,6,63,941,plus1,0,b06.bmp,Judgeindirect,blacksquare2.gif,pic67.bmp,Mask.bmp,022117,10:31:19,5.0.6.0,1,whiteindirect,6,64,1711,minus1,0,w07.bmp,Judgeindirect,blacksquare2.gif,pic54.bmp,Mask.bmp,022117,10:31:19,5.0.6.0,1,neutral,6,65,1265,plus1,0,GREY.bmp,Judgeindirect,blacksquare2.gif,pic64.bmp,Mask.bmp,022117,10:31:19,5.0.6.0,1,blackindirect,6,66,2133,minus2,0,b01.bmp,Judgeindirect,blacksquare2.gif,pic70.bmp,Mask.bmp,022117,10:31:19,5.0.6.0,1,blackindirect,6,67,1222,plus1,0,b12.bmp,Judgeindirect,blacksquare2.gif,pic49.bmp,Mask.bmp,022117,10:31:19,5.0.6.0,1,neutral,6,68,772,plus1,0,GREY.bmp,Judgeindirect,blacksquare2.gif,pic11.bmp,Mask.bmp,022117,10:31:19,5.0.6.0,1,blackindirect,6,69,2445,minus1,0,b04.bmp,Judgeindirect,blacksquare2.gif,pic24.bmp,Mask.bmp,022117,10:31:19,5.0.6.0,1,neutral,6,70,729,plus1,0,GREY.bmp,Judgeindirect,blacksquare2.gif,pic74.bmp,Mask.bmp,022117,10:31:19,5.0.6.0,1,whiteindirect,6,71,659,plus1,0,b12.jpg,Judgeindirect,blacksquare2.gif,pic36.bmp,Mask.bmp,022117,10:31:19,5.0.6.0,1,blackindirect,6,72,864,plus1,0,b09.bmp,Judgeindirect,blacksquare2.gif,pic56.bmp,Mask.bmp,022117,10:31:19,5.0.6.0,1,gender,7,1,9163,1,1,0,demo,0,0,0,022117,10:31:19,5.0.6.0,1,age,7,1,9163,19,1,0,demo,0,0,0,022117,10:31:19,5.0.6.0,1,ethnicity,7,1,9163,Asian-American,1,0,demo,0,0,0,022117,10:55:49,5.0.6.0,2,practice,1,1,29621,57,1,sample.bmp,orient1,blacksquare2.gif,pic76.bmp,Mask.bmp,022117,10:55:49,5.0.6.0,2,neutral,4,1,4373,minus2,0,GREY.bmp,Judgeindirect,blacksquare2.gif,pic63.bmp,Mask.bmp,022117,10:55:49,5.0.6.0,2,whiteindirect,4,2,2762,minus2,0,w04.bmp,Judgeindirect,blacksquare2.gif,pic59.bmp,Mask.bmp,022117,10:55:49,5.0.6.0,2,blackindirect,4,3,2033,minus2,0,b08.bmp,Judgeindirect,blacksquare2.gif,pic32.bmp,Mask.bmp,022117,10:55:49,5.0.6.0,2,blackindirect,4,4,1110,minus1,0,b11.bmp,Judgeindirect,blacksquare2.gif,pic4.bmp,Mask.bmp,022117,10:55:49,5.0.6.0,2,blackindirect,4,5,2585,minus2,0,b10.bmp,Judgeindirect,blacksquare2.gif,pic16.bmp,Mask.bmp,022117,10:55:49,5.0.6.0,2,whiteindirect,4,6,4718,plus1,0,w09.bmp,Judgeindirect,blacksquare2.gif,pic43.bmp,Mask.bmp,022117,10:55:49,5.0.6.0,2,blackindirect,4,7,1861,plus2,0,b04.bmp,Judgeindirect,blacksquare2.gif,pic56.bmp,Mask.bmp,022117,10:55:49,5.0.6.0,2,neutral,4,8,817,plus2,0,GREY.bmp,Judgeindirect,blacksquare2.gif,pic37.bmp,Mask.bmp,022117,10:55:49,5.0.6.0,2,whiteindirect,4,9,1303,minus1,0,w08.bmp,Judgeindirect,blacksquare2.gif,pic73.bmp,Mask.bmp,022117,10:55:49,5.0.6.0,2,neutral,4,10,362,minus1,0,GREY.bmp,Judgeindirect,blacksquare2.gif,pic70.bmp,Mask.bmp,022117,10:55:49,5.0.6.0,2,whiteindirect,4,11,1235,minus2,0,w02.bmp,Judgeindirect,blacksquare2.gif,pic26.bmp,Mask.bmp,022117,10:55:49,5.0.6.0,2,blackindirect,4,12,969,minus1,0,b06.bmp,Judgeindirect,blacksquare2.gif,pic9.bmp,Mask.bmp,022117,10:55:49,5.0.6.0,2,neutral,4,13,1585,plus1,0,GREY.bmp,Judgeindirect,blacksquare2.gif,pic68.bmp,Mask.bmp,022117,10:55:49,5.0.6.0,2,neutral,4,14,3080,plus2,0,GREY.bmp,Judgeindirect,blacksquare2.gif,pic7.bmp,Mask.bmp,022117,10:55:49,5.0.6.0,2,blackindirect,4,15,1714,minus1,0,b07.bmp,Judgeindirect,blacksquare2.gif,pic42.bmp,Mask.bmp,022117,10:55:49,5.0.6.0,2,whiteindirect,4,16,1540,plus1,0,b12.jpg,Judgeindirect,blacksquare2.gif,pic60.bmp,Mask.bmp,022117,10:55:49,5.0.6.0,2,whiteindirect,4,17,1909,minus2,0,w06.bmp,Judgeindirect,blacksquare2.gif,pic13.bmp,Mask.bmp,022117,10:55:49,5.0.6.0,2,whiteindirect,4,18,951,minus1,0,w01.bmp,Judgeindirect,blacksquare2.gif,pic3.bmp,Mask.bmp,022117,10:55:49,5.0.6.0,2,whiteindirect,4,19,720,plus1,0,b10.jpg,Judgeindirect,blacksquare2.gif,pic19.bmp,Mask.bmp,022117,10:55:49,5.0.6.0,2,neutral,4,20,1107,plus2,0,GREY.bmp,Judgeindirect,blacksquare2.gif,pic62.bmp,Mask.bmp,022117,10:55:49,5.0.6.0,2,whiteindirect,4,21,1374,minus1,0,w07.bmp,Judgeindirect,blacksquare2.gif,pic69.bmp,Mask.bmp,022117,10:55:49,5.0.6.0,2,blackindirect,4,22,982,minus2,0,b03.bmp,Judgeindirect,blacksquare2.gif,pic38.bmp,Mask.bmp,022117,10:55:49,5.0.6.0,2,whiteindirect,4,23,638,plus1,0,w05.bmp,Judgeindirect,blacksquare2.gif,pic8.bmp,Mask.bmp,022117,10:55:49,5.0.6.0,2,neutral,4,24,412,plus2,0,GREY.bmp,Judgeindirect,blacksquare2.gif,pic1.bmp,Mask.bmp,022117,10:55:49,5.0.6.0,2,whiteindirect,4,25,787,minus1,0,b11.jpg,Judgeindirect,blacksquare2.gif,pic36.bmp,Mask.bmp,022117,10:55:49,5.0.6.0,2,blackindirect,4,26,475,minus2,0,b02.bmp,Judgeindirect,blacksquare2.gif,pic46.bmp,Mask.bmp,022117,10:55:49,5.0.6.0,2,blackindirect,4,27,640,plus1,0,b09.bmp,Judgeindirect,blacksquare2.gif,pic34.bmp,Mask.bmp,022117,10:55:49,5.0.6.0,2,neutral,4,28,454,plus2,0,GREY.bmp,Judgeindirect,blacksquare2.gif,pic57.bmp,Mask.bmp,022117,10:55:49,5.0.6.0,2,whiteindirect,4,29,452,plus1,0,w03.bmp,Judgeindirect,blacksquare2.gif,pic15.bmp,Mask.bmp,022117,10:55:49,5.0.6.0,2,neutral,4,30,497,minus1,0,GREY.bmp,Judgeindirect,blacksquare2.gif,pic51.bmp,Mask.bmp,022117,10:55:49,5.0.6.0,2,blackindirect,4,31,533,minus2,0,b01.bmp,Judgeindirect,blacksquare2.gif,pic55.bmp,Mask.bmp,022117,10:55:49,5.0.6.0,2,blackindirect,4,32,567,minus1,0,b05.bmp,Judgeindirect,blacksquare2.gif,pic74.bmp,Mask.bmp,022117,10:55:49,5.0.6.0,2,neutral,4,33,464,plus1,0,GREY.bmp,Judgeindirect,blacksquare2.gif,pic67.bmp,Mask.bmp,022117,10:55:49,5.0.6.0,2,neutral,4,34,589,plus2,0,GREY.bmp,Judgeindirect,blacksquare2.gif,pic24.bmp,Mask.bmp,022117,10:55:49,5.0.6.0,2,neutral,4,35,797,plus1,0,GREY.bmp,Judgeindirect,blacksquare2.gif,pic65.bmp,Mask.bmp,022117,10:55:49,5.0.6.0,2,neutral,4,36,10876,minus1,0,GREY.bmp,Judgeindirect,blacksquare2.gif,pic2.bmp,Mask.bmp,022117,10:55:49,5.0.6.0,2,blackindirect,4,37,662,plus1,0,b12.bmp,Judgeindirect,blacksquare2.gif,pic18.bmp,Mask.bmp,022117,10:55:49,5.0.6.0,2,whiteindirect,4,38,538,plus2,0,b10.jpg,Judgeindirect,blacksquare2.gif,pic66.bmp,Mask.bmp,022117,10:55:49,5.0.6.0,2,neutral,4,39,301,plus1,0,GREY.bmp,Judgeindirect,blacksquare2.gif,pic20.bmp,Mask.bmp,022117,10:55:49,5.0.6.0,2,neutral,4,40,433,minus1,0,GREY.bmp,Judgeindirect,blacksquare2.gif,pic49.bmp,Mask.bmp,022117,10:55:49,5.0.6.0,2,neutral,4,41,439,minus2,0,GREY.bmp,Judgeindirect,blacksquare2.gif,pic28.bmp,Mask.bmp,022117,10:55:49,5.0.6.0,2,blackindirect,4,42,501,minus1,0,b10.bmp,Judgeindirect,blacksquare2.gif,pic39.bmp,Mask.bmp,022117,10:55:49,5.0.6.0,2,whiteindirect,4,43,281,plus1,0,w05.bmp,Judgeindirect,blacksquare2.gif,pic14.bmp,Mask.bmp,022117,10:55:49,5.0.6.0,2,blackindirect,4,44,366,plus2,0,b09.bmp,Judgeindirect,blacksquare2.gif,pic27.bmp,Mask.bmp,022117,10:55:49,5.0.6.0,2,neutral,4,45,615,plus1,0,GREY.bmp,Judgeindirect,blacksquare2.gif,pic47.bmp,Mask.bmp,022117,10:55:49,5.0.6.0,2,neutral,4,46,302,minus1,0,GREY.bmp,Judgeindirect,blacksquare2.gif,pic58.bmp,Mask.bmp,022117,10:55:49,5.0.6.0,2,whiteindirect,4,47,330,minus2,0,w09.bmp,Judgeindirect,blacksquare2.gif,pic29.bmp,Mask.bmp,022117,10:55:49,5.0.6.0,2,blackindirect,4,48,572,minus1,0,b12.bmp,Judgeindirect,blacksquare2.gif,pic11.bmp,Mask.bmp,022117,10:55:49,5.0.6.0,2,whiteindirect,4,49,509,plus1,0,w06.bmp,Judgeindirect,blacksquare2.gif,pic52.bmp,Mask.bmp,022117,10:55:49,5.0.6.0,2,whiteindirect,4,50,345,plus2,0,w02.bmp,Judgeindirect,blacksquare2.gif,pic41.bmp,Mask.bmp,022117,10:55:49,5.0.6.0,2,blackindirect,4,51,418,plus1,0,b04.bmp,Judgeindirect,blacksquare2.gif,pic61.bmp,Mask.bmp,022117,10:55:49,5.0.6.0,2,blackindirect,4,52,209,plus2,0,b08.bmp,Judgeindirect,blacksquare2.gif,pic72.bmp,Mask.bmp,022117,10:55:49,5.0.6.0,2,neutral,4,53,369,minus1,0,GREY.bmp,Judgeindirect,blacksquare2.gif,pic48.bmp,Mask.bmp,022117,10:55:49,5.0.6.0,2,blackindirect,4,54,331,minus2,0,b11.bmp,Judgeindirect,blacksquare2.gif,pic64.bmp,Mask.bmp,022117,10:55:49,5.0.6.0,2,blackindirect,4,55,333,minus1,0,b01.bmp,Judgeindirect,blacksquare2.gif,pic12.bmp,Mask.bmp,022117,10:55:49,5.0.6.0,2,whiteindirect,4,56,312,plus1,0,w04.bmp,Judgeindirect,blacksquare2.gif,pic31.bmp,Mask.bmp,022117,10:55:49,5.0.6.0,2,blackindirect,4,57,363,plus2,0,b07.bmp,Judgeindirect,blacksquare2.gif,pic17.bmp,Mask.bmp,022117,10:55:49,5.0.6.0,2,neutral,4,58,372,plus1,0,GREY.bmp,Judgeindirect,blacksquare2.gif,pic54.bmp,Mask.bmp,022117,10:55:49,5.0.6.0,2,neutral,4,59,429,minus1,0,GREY.bmp,Judgeindirect,blacksquare2.gif,pic40.bmp,Mask.bmp,022117,10:55:49,5.0.6.0,2,neutral,4,60,1395,minus1,0,GREY.bmp,Judgeindirect,blacksquare2.gif,pic22.bmp,Mask.bmp,022117,10:55:49,5.0.6.0,2,blackindirect,4,61,315,plus1,0,b02.bmp,Judgeindirect,blacksquare2.gif,pic71.bmp,Mask.bmp,022117,10:55:49,5.0.6.0,2,blackindirect,4,62,374,plus2,0,b05.bmp,Judgeindirect,blacksquare2.gif,pic21.bmp,Mask.bmp,022117,10:55:49,5.0.6.0,2,whiteindirect,4,63,215,plus1,0,w03.bmp,Judgeindirect,blacksquare2.gif,pic53.bmp,Mask.bmp,022117,10:55:49,5.0.6.0,2,neutral,4,64,814,minus1,0,GREY.bmp,Judgeindirect,blacksquare2.gif,pic75.bmp,Mask.bmp,022117,10:55:49,5.0.6.0,2,whiteindirect,4,65,469,minus2,0,w08.bmp,Judgeindirect,blacksquare2.gif,pic45.bmp,Mask.bmp,022117,10:55:49,5.0.6.0,2,whiteindirect,4,66,282,minus1,0,w07.bmp,Judgeindirect,blacksquare2.gif,pic25.bmp,Mask.bmp,022117,10:55:49,5.0.6.0,2,blackindirect,4,67,543,plus1,0,b03.bmp,Judgeindirect,blacksquare2.gif,pic6.bmp,Mask.bmp,022117,10:55:49,5.0.6.0,2,blackindirect,4,68,473,plus2,0,b06.bmp,Judgeindirect,blacksquare2.gif,pic50.bmp,Mask.bmp,022117,10:55:49,5.0.6.0,2,neutral,4,69,230,plus1,0,GREY.bmp,Judgeindirect,blacksquare2.gif,pic30.bmp,Mask.bmp,022117,10:55:49,5.0.6.0,2,whiteindirect,4,70,365,minus1,0,w01.bmp,Judgeindirect,blacksquare2.gif,pic33.bmp,Mask.bmp,022117,10:55:49,5.0.6.0,2,whiteindirect,4,71,366,minus2,0,b12.jpg,Judgeindirect,blacksquare2.gif,pic23.bmp,Mask.bmp,022117,10:55:49,5.0.6.0,2,whiteindirect,4,72,2151,minus1,0,b11.jpg,Judgeindirect,blacksquare2.gif,pic5.bmp,Mask.bmp,022117,10:55:49,5.0.6.0,2,whitedirect,6,1,3493,minus1,0,b11.jpg,Judgedirect,blacksquare2.gif,pic101.bmp,Mask.bmp,022117,10:55:49,5.0.6.0,2,blackdirect,6,2,1158,minus1,0,b08.bmp,Judgedirect,blacksquare2.gif,pic100.bmp,Mask.bmp,022117,10:55:49,5.0.6.0,2,whitedirect,6,3,1151,plus1,0,w01.bmp,Judgedirect,blacksquare2.gif,pic78.bmp,Mask.bmp,022117,10:55:49,5.0.6.0,2,blackdirect,6,4,984,minus1,0,b03.bmp,Judgedirect,blacksquare2.gif,pic117.bmp,Mask.bmp,022117,10:55:49,5.0.6.0,2,whitedirect,6,5,600,minus1,0,w07.bmp,Judgedirect,blacksquare2.gif,pic80.bmp,Mask.bmp,022117,10:55:49,5.0.6.0,2,blackdirect,6,6,1447,plus1,0,b06.bmp,Judgedirect,blacksquare2.gif,pic103.bmp,Mask.bmp,022117,10:55:49,5.0.6.0,2,whitedirect,6,7,788,minus1,0,w03.bmp,Judgedirect,blacksquare2.gif,pic116.bmp,Mask.bmp,022117,10:55:49,5.0.6.0,2,blackdirect,6,8,876,plus1,0,b10.bmp,Judgedirect,blacksquare2.gif,pic108.bmp,Mask.bmp,022117,10:55:49,5.0.6.0,2,whitedirect,6,9,721,minus1,0,w06.bmp,Judgedirect,blacksquare2.gif,pic115.bmp,Mask.bmp,022117,10:55:49,5.0.6.0,2,blackdirect,6,10,771,plus2,0,b01.bmp,Judgedirect,blacksquare2.gif,pic105.bmp,Mask.bmp,022117,10:55:49,5.0.6.0,2,whitedirect,6,11,604,plus1,0,w08.bmp,Judgedirect,blacksquare2.gif,pic112.bmp,Mask.bmp,022117,10:55:49,5.0.6.0,2,blackdirect,6,12,564,minus1,0,b02.bmp,Judgedirect,blacksquare2.gif,pic107.bmp,Mask.bmp,022117,10:55:49,5.0.6.0,2,whitedirect,6,13,356,minus2,0,b12.jpg,Judgedirect,blacksquare2.gif,pic113.bmp,Mask.bmp,022117,10:55:49,5.0.6.0,2,blackdirect,6,14,286,minus1,0,b07.bmp,Judgedirect,blacksquare2.gif,pic79.bmp,Mask.bmp,022117,10:55:49,5.0.6.0,2,whitedirect,6,15,347,plus1,0,w09.bmp,Judgedirect,blacksquare2.gif,pic104.bmp,Mask.bmp,022117,10:55:49,5.0.6.0,2,blackdirect,6,16,413,plus2,0,b12.bmp,Judgedirect,blacksquare2.gif,pic114.bmp,Mask.bmp,022117,10:55:49,5.0.6.0,2,whitedirect,6,17,356,plus1,0,w05.bmp,Judgedirect,blacksquare2.gif,pic110.bmp,Mask.bmp,022117,10:55:49,5.0.6.0,2,blackdirect,6,18,526,plus2,0,b11.bmp,Judgedirect,blacksquare2.gif,pic118.bmp,Mask.bmp,022117,10:55:49,5.0.6.0,2,whitedirect,6,19,1048,minus1,0,b10.jpg,Judgedirect,blacksquare2.gif,pic111.bmp,Mask.bmp,022117,10:55:49,5.0.6.0,2,blackdirect,6,20,670,plus1,0,b05.bmp,Judgedirect,blacksquare2.gif,pic109.bmp,Mask.bmp,022117,10:55:49,5.0.6.0,2,whitedirect,6,21,730,minus2,0,w04.bmp,Judgedirect,blacksquare2.gif,pic106.bmp,Mask.bmp,022117,10:55:49,5.0.6.0,2,blackdirect,6,22,468,minus1,0,b04.bmp,Judgedirect,blacksquare2.gif,pic102.bmp,Mask.bmp,022117,10:55:49,5.0.6.0,2,whitedirect,6,23,321,plus1,0,w02.bmp,Judgedirect,blacksquare2.gif,pic81.bmp,Mask.bmp,022117,10:55:49,5.0.6.0,2,blackdirect,6,24,437,plus2,0,b09.bmp,Judgedirect,blacksquare2.gif,pic82.bmp,Mask.bmp,022117,10:55:49,5.0.6.0,2,gender,7,1,8466,1,1,0,demo,0,0,0,022117,10:55:49,5.0.6.0,2,age,7,1,8466,19,1,0,demo,0,0,0,022117,10:55:49,5.0.6.0,2,ethnicity,7,1,8466,Asian-American,1,0,demo,0,0,0,022117,11:29:20,5.0.6.0,3,practice,1,1,2224,57,1,sample.bmp,orient1,blacksquare2.gif,pic76.bmp,Mask.bmp,022117,11:29:20,5.0.6.0,3,blackindirect,4,1,6589,minus1,0,b06.bmp,Judgeindirect,blacksquare2.gif,pic29.bmp,Mask.bmp,022117,11:29:20,5.0.6.0,3,whiteindirect,4,2,2910,plus1,0,b11.jpg,Judgeindirect,blacksquare2.gif,pic17.bmp,Mask.bmp,022117,11:29:20,5.0.6.0,3,blackindirect,4,3,2199,plus2,0,b08.bmp,Judgeindirect,blacksquare2.gif,pic71.bmp,Mask.bmp,022117,11:29:20,5.0.6.0,3,blackindirect,4,4,3797,plus1,0,b05.bmp,Judgeindirect,blacksquare2.gif,pic25.bmp,Mask.bmp,022117,11:29:20,5.0.6.0,3,neutral,4,5,2042,plus1,0,GREY.bmp,Judgeindirect,blacksquare2.gif,pic12.bmp,Mask.bmp,022117,11:29:20,5.0.6.0,3,blackindirect,4,6,3934,plus2,0,b12.bmp,Judgeindirect,blacksquare2.gif,pic36.bmp,Mask.bmp,022117,11:29:20,5.0.6.0,3,neutral,4,7,2964,plus2,0,GREY.bmp,Judgeindirect,blacksquare2.gif,pic27.bmp,Mask.bmp,022117,11:29:20,5.0.6.0,3,whiteindirect,4,8,1803,plus1,0,w03.bmp,Judgeindirect,blacksquare2.gif,pic38.bmp,Mask.bmp,022117,11:29:20,5.0.6.0,3,whiteindirect,4,9,2369,minus1,0,w05.bmp,Judgeindirect,blacksquare2.gif,pic60.bmp,Mask.bmp,022117,11:29:20,5.0.6.0,3,blackindirect,4,10,2824,minus2,0,b04.bmp,Judgeindirect,blacksquare2.gif,pic32.bmp,Mask.bmp,022117,11:29:20,5.0.6.0,3,neutral,4,11,2532,plus2,0,GREY.bmp,Judgeindirect,blacksquare2.gif,pic23.bmp,Mask.bmp,022117,11:29:20,5.0.6.0,3,neutral,4,12,1620,plus1,0,GREY.bmp,Judgeindirect,blacksquare2.gif,pic73.bmp,Mask.bmp,022117,11:29:20,5.0.6.0,3,blackindirect,4,13,5273,minus1,0,b02.bmp,Judgeindirect,blacksquare2.gif,pic47.bmp,Mask.bmp,022117,11:29:20,5.0.6.0,3,whiteindirect,4,14,1785,minus2,0,w07.bmp,Judgeindirect,blacksquare2.gif,pic62.bmp,Mask.bmp,022117,11:29:20,5.0.6.0,3,whiteindirect,4,15,2520,plus1,0,w06.bmp,Judgeindirect,blacksquare2.gif,pic52.bmp,Mask.bmp,022117,11:29:20,5.0.6.0,3,whiteindirect,4,16,2169,plus1,0,b10.jpg,Judgeindirect,blacksquare2.gif,pic28.bmp,Mask.bmp,022117,11:29:20,5.0.6.0,3,neutral,4,17,1720,plus2,0,GREY.bmp,Judgeindirect,blacksquare2.gif,pic45.bmp,Mask.bmp,022117,11:29:20,5.0.6.0,3,blackindirect,4,18,2673,plus1,0,b11.bmp,Judgeindirect,blacksquare2.gif,pic21.bmp,Mask.bmp,022117,11:29:20,5.0.6.0,3,whiteindirect,4,19,1444,plus2,0,w09.bmp,Judgeindirect,blacksquare2.gif,pic40.bmp,Mask.bmp,022117,11:29:20,5.0.6.0,3,whiteindirect,4,20,1825,plus1,0,w04.bmp,Judgeindirect,blacksquare2.gif,pic50.bmp,Mask.bmp,022117,11:29:20,5.0.6.0,3,neutral,4,21,1678,plus1,0,GREY.bmp,Judgeindirect,blacksquare2.gif,pic67.bmp,Mask.bmp,022117,11:29:20,5.0.6.0,3,whiteindirect,4,22,1218,plus2,0,b12.jpg,Judgeindirect,blacksquare2.gif,pic2.bmp,Mask.bmp,022117,11:29:20,5.0.6.0,3,neutral,4,23,1752,plus2,0,GREY.bmp,Judgeindirect,blacksquare2.gif,pic70.bmp,Mask.bmp,022117,11:29:20,5.0.6.0,3,whiteindirect,4,24,1248,plus2,0,w01.bmp,Judgeindirect,blacksquare2.gif,pic41.bmp,Mask.bmp,022117,11:29:20,5.0.6.0,3,neutral,4,25,1445,plus1,0,GREY.bmp,Judgeindirect,blacksquare2.gif,pic48.bmp,Mask.bmp,022117,11:29:20,5.0.6.0,3,neutral,4,26,811,plus1,0,GREY.bmp,Judgeindirect,blacksquare2.gif,pic8.bmp,Mask.bmp,022117,11:29:20,5.0.6.0,3,blackindirect,4,27,1586,plus1,0,b07.bmp,Judgeindirect,blacksquare2.gif,pic65.bmp,Mask.bmp,022117,11:29:20,5.0.6.0,3,blackindirect,4,28,2473,minus2,0,b09.bmp,Judgeindirect,blacksquare2.gif,pic20.bmp,Mask.bmp,022117,11:29:20,5.0.6.0,3,whiteindirect,4,29,1980,plus2,0,w08.bmp,Judgeindirect,blacksquare2.gif,pic19.bmp,Mask.bmp,022117,11:29:20,5.0.6.0,3,blackindirect,4,30,2522,plus1,0,b03.bmp,Judgeindirect,blacksquare2.gif,pic33.bmp,Mask.bmp,022117,11:29:20,5.0.6.0,3,whiteindirect,4,31,1331,minus1,0,w02.bmp,Judgeindirect,blacksquare2.gif,pic22.bmp,Mask.bmp,022117,11:29:20,5.0.6.0,3,blackindirect,4,32,1772,minus1,0,b10.bmp,Judgeindirect,blacksquare2.gif,pic56.bmp,Mask.bmp,022117,11:29:20,5.0.6.0,3,whiteindirect,4,33,1196,minus1,0,w08.bmp,Judgeindirect,blacksquare2.gif,pic42.bmp,Mask.bmp,022117,11:29:20,5.0.6.0,3,blackindirect,4,34,2258,plus2,0,b01.bmp,Judgeindirect,blacksquare2.gif,pic43.bmp,Mask.bmp,022117,11:29:20,5.0.6.0,3,blackindirect,4,35,1302,plus1,0,b02.bmp,Judgeindirect,blacksquare2.gif,pic6.bmp,Mask.bmp,022117,11:29:20,5.0.6.0,3,neutral,4,36,2993,plus1,0,GREY.bmp,Judgeindirect,blacksquare2.gif,pic75.bmp,Mask.bmp,022117,11:29:20,5.0.6.0,3,whiteindirect,4,37,2158,plus1,0,w09.bmp,Judgeindirect,blacksquare2.gif,pic26.bmp,Mask.bmp,022117,11:29:20,5.0.6.0,3,blackindirect,4,38,1030,plus2,0,b08.bmp,Judgeindirect,blacksquare2.gif,pic30.bmp,Mask.bmp,022117,11:29:20,5.0.6.0,3,blackindirect,4,39,1460,plus1,0,b10.bmp,Judgeindirect,blacksquare2.gif,pic16.bmp,Mask.bmp,022117,11:29:20,5.0.6.0,3,neutral,4,40,696,plus1,0,GREY.bmp,Judgeindirect,blacksquare2.gif,pic58.bmp,Mask.bmp,022117,11:29:20,5.0.6.0,3,neutral,4,41,1420,plus2,0,GREY.bmp,Judgeindirect,blacksquare2.gif,pic63.bmp,Mask.bmp,022117,11:29:20,5.0.6.0,3,whiteindirect,4,42,1090,plus1,0,b10.jpg,Judgeindirect,blacksquare2.gif,pic57.bmp,Mask.bmp,022117,11:29:20,5.0.6.0,3,whiteindirect,4,43,1117,plus2,0,w04.bmp,Judgeindirect,blacksquare2.gif,pic59.bmp,Mask.bmp,022117,11:29:20,5.0.6.0,3,whiteindirect,4,44,616,plus2,0,w03.bmp,Judgeindirect,blacksquare2.gif,pic31.bmp,Mask.bmp,022117,11:29:20,5.0.6.0,3,blackindirect,4,45,1966,plus2,0,b01.bmp,Judgeindirect,blacksquare2.gif,pic24.bmp,Mask.bmp,022117,11:29:20,5.0.6.0,3,whiteindirect,4,46,1470,minus1,0,w07.bmp,Judgeindirect,blacksquare2.gif,pic14.bmp,Mask.bmp,022117,11:29:20,5.0.6.0,3,whiteindirect,4,47,1026,plus1,0,w06.bmp,Judgeindirect,blacksquare2.gif,pic46.bmp,Mask.bmp,022117,11:29:20,5.0.6.0,3,neutral,4,48,1192,plus1,0,GREY.bmp,Judgeindirect,blacksquare2.gif,pic9.bmp,Mask.bmp,022117,11:29:20,5.0.6.0,3,blackindirect,4,49,2455,minus1,0,b07.bmp,Judgeindirect,blacksquare2.gif,pic44.bmp,Mask.bmp,022117,11:29:20,5.0.6.0,3,whiteindirect,4,50,995,plus2,0,w02.bmp,Judgeindirect,blacksquare2.gif,pic55.bmp,Mask.bmp,022117,11:29:20,5.0.6.0,3,neutral,4,51,1787,plus2,0,GREY.bmp,Judgeindirect,blacksquare2.gif,pic11.bmp,Mask.bmp,022117,11:29:20,5.0.6.0,3,blackindirect,4,52,1169,plus1,0,b11.bmp,Judgeindirect,blacksquare2.gif,pic5.bmp,Mask.bmp,022117,11:29:20,5.0.6.0,3,neutral,4,53,1378,minus1,0,GREY.bmp,Judgeindirect,blacksquare2.gif,pic49.bmp,Mask.bmp,022117,11:29:20,5.0.6.0,3,neutral,4,54,2354,plus1,0,GREY.bmp,Judgeindirect,blacksquare2.gif,pic51.bmp,Mask.bmp,022117,11:29:20,5.0.6.0,3,neutral,4,55,2753,plus2,0,GREY.bmp,Judgeindirect,blacksquare2.gif,pic53.bmp,Mask.bmp,022117,11:29:20,5.0.6.0,3,blackindirect,4,56,928,plus1,0,b04.bmp,Judgeindirect,blacksquare2.gif,pic69.bmp,Mask.bmp,022117,11:29:20,5.0.6.0,3,blackindirect,4,57,1866,plus1,0,b06.bmp,Judgeindirect,blacksquare2.gif,pic37.bmp,Mask.bmp,022117,11:29:20,5.0.6.0,3,whiteindirect,4,58,1149,plus1,0,b12.jpg,Judgeindirect,blacksquare2.gif,pic10.bmp,Mask.bmp,022117,11:29:20,5.0.6.0,3,neutral,4,59,2590,minus1,0,GREY.bmp,Judgeindirect,blacksquare2.gif,pic68.bmp,Mask.bmp,022117,11:29:20,5.0.6.0,3,neutral,4,60,1732,plus1,0,GREY.bmp,Judgeindirect,blacksquare2.gif,pic4.bmp,Mask.bmp,022117,11:29:20,5.0.6.0,3,neutral,4,61,1693,minus2,0,GREY.bmp,Judgeindirect,blacksquare2.gif,pic7.bmp,Mask.bmp,022117,11:29:20,5.0.6.0,3,whiteindirect,4,62,2112,plus1,0,w01.bmp,Judgeindirect,blacksquare2.gif,pic74.bmp,Mask.bmp,022117,11:29:20,5.0.6.0,3,neutral,4,63,8161,plus1,0,GREY.bmp,Judgeindirect,blacksquare2.gif,pic15.bmp,Mask.bmp,022117,11:29:20,5.0.6.0,3,whiteindirect,4,64,1883,plus1,0,b11.jpg,Judgeindirect,blacksquare2.gif,pic3.bmp,Mask.bmp,022117,11:29:20,5.0.6.0,3,neutral,4,65,2381,plus2,0,GREY.bmp,Judgeindirect,blacksquare2.gif,pic64.bmp,Mask.bmp,022117,11:29:20,5.0.6.0,3,blackindirect,4,66,796,plus1,0,b12.bmp,Judgeindirect,blacksquare2.gif,pic66.bmp,Mask.bmp,022117,11:29:20,5.0.6.0,3,blackindirect,4,67,1467,plus2,0,b09.bmp,Judgeindirect,blacksquare2.gif,pic1.bmp,Mask.bmp,022117,11:29:20,5.0.6.0,3,neutral,4,68,2239,plus2,0,GREY.bmp,Judgeindirect,blacksquare2.gif,pic18.bmp,Mask.bmp,022117,11:29:20,5.0.6.0,3,neutral,4,69,955,plus1,0,GREY.bmp,Judgeindirect,blacksquare2.gif,pic54.bmp,Mask.bmp,022117,11:29:20,5.0.6.0,3,blackindirect,4,70,1004,plus1,0,b05.bmp,Judgeindirect,blacksquare2.gif,pic61.bmp,Mask.bmp,022117,11:29:20,5.0.6.0,3,blackindirect,4,71,1411,plus1,0,b03.bmp,Judgeindirect,blacksquare2.gif,pic34.bmp,Mask.bmp,022117,11:29:20,5.0.6.0,3,whiteindirect,4,72,2010,minus1,0,w05.bmp,Judgeindirect,blacksquare2.gif,pic39.bmp,Mask.bmp,022117,11:29:20,5.0.6.0,3,blackdirect,6,1,1420,plus1,0,b08.bmp,Judgedirect,blacksquare2.gif,pic104.bmp,Mask.bmp,022117,11:29:20,5.0.6.0,3,whitedirect,6,2,794,plus1,0,w08.bmp,Judgedirect,blacksquare2.gif,pic113.bmp,Mask.bmp,022117,11:29:20,5.0.6.0,3,blackdirect,6,3,1778,minus2,0,b10.bmp,Judgedirect,blacksquare2.gif,pic112.bmp,Mask.bmp,022117,11:29:20,5.0.6.0,3,whitedirect,6,4,1474,plus2,0,w02.bmp,Judgedirect,blacksquare2.gif,pic115.bmp,Mask.bmp,022117,11:29:20,5.0.6.0,3,blackdirect,6,5,3846,plus2,0,b12.bmp,Judgedirect,blacksquare2.gif,pic102.bmp,Mask.bmp,022117,11:29:20,5.0.6.0,3,whitedirect,6,6,2384,minus1,0,w04.bmp,Judgedirect,blacksquare2.gif,pic111.bmp,Mask.bmp,022117,11:29:20,5.0.6.0,3,blackdirect,6,7,2230,plus2,0,b04.bmp,Judgedirect,blacksquare2.gif,pic105.bmp,Mask.bmp,022117,11:29:20,5.0.6.0,3,whitedirect,6,8,819,plus1,0,b11.jpg,Judgedirect,blacksquare2.gif,pic100.bmp,Mask.bmp,022117,11:29:20,5.0.6.0,3,blackdirect,6,9,569,plus1,0,b03.bmp,Judgedirect,blacksquare2.gif,pic114.bmp,Mask.bmp,022117,11:29:20,5.0.6.0,3,whitedirect,6,10,1482,minus1,0,w09.bmp,Judgedirect,blacksquare2.gif,pic107.bmp,Mask.bmp,022117,11:29:20,5.0.6.0,3,blackdirect,6,11,965,plus1,0,b11.bmp,Judgedirect,blacksquare2.gif,pic82.bmp,Mask.bmp,022117,11:29:20,5.0.6.0,3,whitedirect,6,12,1230,plus2,0,b12.jpg,Judgedirect,blacksquare2.gif,pic109.bmp,Mask.bmp,022117,11:29:20,5.0.6.0,3,blackdirect,6,13,2259,minus1,0,b01.bmp,Judgedirect,blacksquare2.gif,pic106.bmp,Mask.bmp,022117,11:29:20,5.0.6.0,3,whitedirect,6,14,1743,minus1,0,w07.bmp,Judgedirect,blacksquare2.gif,pic78.bmp,Mask.bmp,022117,11:29:20,5.0.6.0,3,blackdirect,6,15,1608,plus1,0,b07.bmp,Judgedirect,blacksquare2.gif,pic118.bmp,Mask.bmp,022117,11:29:20,5.0.6.0,3,whitedirect,6,16,1398,plus1,0,w05.bmp,Judgedirect,blacksquare2.gif,pic81.bmp,Mask.bmp,022117,11:29:20,5.0.6.0,3,blackdirect,6,17,1037,plus2,0,b02.bmp,Judgedirect,blacksquare2.gif,pic110.bmp,Mask.bmp,022117,11:29:20,5.0.6.0,3,whitedirect,6,18,2522,minus2,0,w03.bmp,Judgedirect,blacksquare2.gif,pic117.bmp,Mask.bmp,022117,11:29:20,5.0.6.0,3,blackdirect,6,19,1043,plus1,0,b06.bmp,Judgedirect,blacksquare2.gif,pic101.bmp,Mask.bmp,022117,11:29:20,5.0.6.0,3,whitedirect,6,20,897,plus1,0,w06.bmp,Judgedirect,blacksquare2.gif,pic80.bmp,Mask.bmp,022117,11:29:20,5.0.6.0,3,blackdirect,6,21,1564,minus1,0,b09.bmp,Judgedirect,blacksquare2.gif,pic103.bmp,Mask.bmp,022117,11:29:20,5.0.6.0,3,whitedirect,6,22,508,minus1,0,b10.jpg,Judgedirect,blacksquare2.gif,pic79.bmp,Mask.bmp,022117,11:29:20,5.0.6.0,3,blackdirect,6,23,631,minus1,0,b05.bmp,Judgedirect,blacksquare2.gif,pic116.bmp,Mask.bmp,022117,11:29:20,5.0.6.0,3,whitedirect,6,24,1470,plus1,0,w01.bmp,Judgedirect,blacksquare2.gif,pic108.bmp,Mask.bmp,022117,11:29:20,5.0.6.0,3,gender,7,1,9447,1,1,0,demo,0,0,0,022117,11:29:20,5.0.6.0,3,age,7,1,9447,18,1,0,demo,0,0,0,022117,11:29:20,5.0.6.0,3,ethnicity,7,1,9447,"White, non-Hispanic or Latino",1,0,demo,0,0,0,022117,11:56:14,5.0.6.0,4,practice,1,1,10964,57,1,sample.bmp,orient1,blacksquare2.gif,pic76.bmp,Mask.bmp,022117,11:56:14,5.0.6.0,4,blackdirect,4,1,11894,plus1,0,b12.bmp,Judgedirect,blacksquare2.gif,pic78.bmp,Mask.bmp,022117,11:56:14,5.0.6.0,4,whitedirect,4,2,3902,minus1,0,w05.bmp,Judgedirect,blacksquare2.gif,pic100.bmp,Mask.bmp,022117,11:56:14,5.0.6.0,4,blackdirect,4,3,2574,minus1,0,b11.bmp,Judgedirect,blacksquare2.gif,pic114.bmp,Mask.bmp,022117,11:56:14,5.0.6.0,4,whitedirect,4,4,2276,plus1,0,w06.bmp,Judgedirect,blacksquare2.gif,pic102.bmp,Mask.bmp,022117,11:56:14,5.0.6.0,4,blackdirect,4,5,3079,plus1,0,b02.bmp,Judgedirect,blacksquare2.gif,pic79.bmp,Mask.bmp,022117,11:56:14,5.0.6.0,4,whitedirect,4,6,1705,minus1,0,w09.bmp,Judgedirect,blacksquare2.gif,pic111.bmp,Mask.bmp,022117,11:56:14,5.0.6.0,4,blackdirect,4,7,1836,minus1,0,b07.bmp,Judgedirect,blacksquare2.gif,pic82.bmp,Mask.bmp,022117,11:56:14,5.0.6.0,4,whitedirect,4,8,2360,minus2,0,b12.jpg,Judgedirect,blacksquare2.gif,pic116.bmp,Mask.bmp,022117,11:56:14,5.0.6.0,4,blackdirect,4,9,2808,plus1,0,b09.bmp,Judgedirect,blacksquare2.gif,pic112.bmp,Mask.bmp,022117,11:56:14,5.0.6.0,4,whitedirect,4,10,1853,minus1,0,w01.bmp,Judgedirect,blacksquare2.gif,pic103.bmp,Mask.bmp,022117,11:56:14,5.0.6.0,4,blackdirect,4,11,1593,minus1,0,b03.bmp,Judgedirect,blacksquare2.gif,pic104.bmp,Mask.bmp,022117,11:56:14,5.0.6.0,4,whitedirect,4,12,1328,minus2,0,w07.bmp,Judgedirect,blacksquare2.gif,pic113.bmp,Mask.bmp,022117,11:56:14,5.0.6.0,4,blackdirect,4,13,1818,minus1,0,b05.bmp,Judgedirect,blacksquare2.gif,pic80.bmp,Mask.bmp,022117,11:56:14,5.0.6.0,4,whitedirect,4,14,1440,minus2,0,w02.bmp,Judgedirect,blacksquare2.gif,pic106.bmp,Mask.bmp,022117,11:56:14,5.0.6.0,4,blackdirect,4,15,2437,minus1,0,b01.bmp,Judgedirect,blacksquare2.gif,pic117.bmp,Mask.bmp,022117,11:56:14,5.0.6.0,4,whitedirect,4,16,1113,plus1,0,w08.bmp,Judgedirect,blacksquare2.gif,pic81.bmp,Mask.bmp,022117,11:56:14,5.0.6.0,4,blackdirect,4,17,2187,minus1,0,b04.bmp,Judgedirect,blacksquare2.gif,pic115.bmp,Mask.bmp,022117,11:56:14,5.0.6.0,4,whitedirect,4,18,4945,minus1,0,b11.jpg,Judgedirect,blacksquare2.gif,pic101.bmp,Mask.bmp,022117,11:56:14,5.0.6.0,4,blackdirect,4,19,1519,plus1,0,b06.bmp,Judgedirect,blacksquare2.gif,pic110.bmp,Mask.bmp,022117,11:56:14,5.0.6.0,4,whitedirect,4,20,1248,minus2,0,w04.bmp,Judgedirect,blacksquare2.gif,pic118.bmp,Mask.bmp,022117,11:56:14,5.0.6.0,4,blackdirect,4,21,4381,minus1,0,b10.bmp,Judgedirect,blacksquare2.gif,pic109.bmp,Mask.bmp,022117,11:56:14,5.0.6.0,4,whitedirect,4,22,1050,minus1,0,b10.jpg,Judgedirect,blacksquare2.gif,pic105.bmp,Mask.bmp,022117,11:56:14,5.0.6.0,4,blackdirect,4,23,1255,minus1,0,b08.bmp,Judgedirect,blacksquare2.gif,pic107.bmp,Mask.bmp,022117,11:56:14,5.0.6.0,4,whitedirect,4,24,2156,plus1,0,w03.bmp,Judgedirect,blacksquare2.gif,pic108.bmp,Mask.bmp,022117,11:56:14,5.0.6.0,4,neutral,6,1,2594,plus1,0,GREY.bmp,Judgeindirect,blacksquare2.gif,pic37.bmp,Mask.bmp,022117,11:56:14,5.0.6.0,4,neutral,6,2,1648,minus2,0,GREY.bmp,Judgeindirect,blacksquare2.gif,pic41.bmp,Mask.bmp,022117,11:56:14,5.0.6.0,4,blackindirect,6,3,3340,minus1,0,b12.bmp,Judgeindirect,blacksquare2.gif,pic69.bmp,Mask.bmp,022117,11:56:14,5.0.6.0,4,whiteindirect,6,4,4723,minus1,0,w02.bmp,Judgeindirect,blacksquare2.gif,pic20.bmp,Mask.bmp,022117,11:56:14,5.0.6.0,4,neutral,6,5,2569,plus1,0,GREY.bmp,Judgeindirect,blacksquare2.gif,pic33.bmp,Mask.bmp,022117,11:56:14,5.0.6.0,4,whiteindirect,6,6,1360,plus2,0,w05.bmp,Judgeindirect,blacksquare2.gif,pic4.bmp,Mask.bmp,022117,11:56:14,5.0.6.0,4,neutral,6,7,1817,plus1,0,GREY.bmp,Judgeindirect,blacksquare2.gif,pic61.bmp,Mask.bmp,022117,11:56:14,5.0.6.0,4,whiteindirect,6,8,3798,minus1,0,b10.jpg,Judgeindirect,blacksquare2.gif,pic72.bmp,Mask.bmp,022117,11:56:14,5.0.6.0,4,whiteindirect,6,9,3754,minus2,0,b12.jpg,Judgeindirect,blacksquare2.gif,pic60.bmp,Mask.bmp,022117,11:56:14,5.0.6.0,4,blackindirect,6,10,1800,plus1,0,b10.bmp,Judgeindirect,blacksquare2.gif,pic47.bmp,Mask.bmp,022117,11:56:14,5.0.6.0,4,blackindirect,6,11,2358,plus2,0,b09.bmp,Judgeindirect,blacksquare2.gif,pic11.bmp,Mask.bmp,022117,11:56:14,5.0.6.0,4,blackindirect,6,12,1782,minus1,0,b02.bmp,Judgeindirect,blacksquare2.gif,pic55.bmp,Mask.bmp,022117,11:56:14,5.0.6.0,4,neutral,6,13,1884,plus1,0,GREY.bmp,Judgeindirect,blacksquare2.gif,pic48.bmp,Mask.bmp,022117,11:56:14,5.0.6.0,4,blackindirect,6,14,2183,plus2,0,b05.bmp,Judgeindirect,blacksquare2.gif,pic19.bmp,Mask.bmp,022117,11:56:14,5.0.6.0,4,whiteindirect,6,15,1998,minus2,0,w07.bmp,Judgeindirect,blacksquare2.gif,pic5.bmp,Mask.bmp,022117,11:56:14,5.0.6.0,4,neutral,6,16,1484,minus1,0,GREY.bmp,Judgeindirect,blacksquare2.gif,pic67.bmp,Mask.bmp,022117,11:56:14,5.0.6.0,4,neutral,6,17,1247,plus1,0,GREY.bmp,Judgeindirect,blacksquare2.gif,pic65.bmp,Mask.bmp,022117,11:56:14,5.0.6.0,4,blackindirect,6,18,2259,plus2,0,b06.bmp,Judgeindirect,blacksquare2.gif,pic12.bmp,Mask.bmp,022117,11:56:14,5.0.6.0,4,neutral,6,19,1623,plus1,0,GREY.bmp,Judgeindirect,blacksquare2.gif,pic6.bmp,Mask.bmp,022117,11:56:14,5.0.6.0,4,blackindirect,6,20,1501,plus1,0,b07.bmp,Judgeindirect,blacksquare2.gif,pic36.bmp,Mask.bmp,022117,11:56:14,5.0.6.0,4,blackindirect,6,21,1183,plus1,0,b03.bmp,Judgeindirect,blacksquare2.gif,pic66.bmp,Mask.bmp,022117,11:56:14,5.0.6.0,4,blackindirect,6,22,2007,minus1,0,b01.bmp,Judgeindirect,blacksquare2.gif,pic71.bmp,Mask.bmp,022117,11:56:14,5.0.6.0,4,neutral,6,23,1589,minus2,0,GREY.bmp,Judgeindirect,blacksquare2.gif,pic31.bmp,Mask.bmp,022117,11:56:14,5.0.6.0,4,blackindirect,6,24,1684,minus2,0,b11.bmp,Judgeindirect,blacksquare2.gif,pic26.bmp,Mask.bmp,022117,11:56:14,5.0.6.0,4,whiteindirect,6,25,1143,minus2,0,w08.bmp,Judgeindirect,blacksquare2.gif,pic25.bmp,Mask.bmp,022117,11:56:14,5.0.6.0,4,neutral,6,26,1576,plus1,0,GREY.bmp,Judgeindirect,blacksquare2.gif,pic49.bmp,Mask.bmp,022117,11:56:14,5.0.6.0,4,neutral,6,27,2088,plus2,0,GREY.bmp,Judgeindirect,blacksquare2.gif,pic21.bmp,Mask.bmp,022117,11:56:14,5.0.6.0,4,whiteindirect,6,28,1683,minus2,0,w01.bmp,Judgeindirect,blacksquare2.gif,pic23.bmp,Mask.bmp,022117,11:56:14,5.0.6.0,4,blackindirect,6,29,1526,minus1,0,b08.bmp,Judgeindirect,blacksquare2.gif,pic75.bmp,Mask.bmp,022117,11:56:14,5.0.6.0,4,whiteindirect,6,30,1295,minus1,0,w03.bmp,Judgeindirect,blacksquare2.gif,pic10.bmp,Mask.bmp,022117,11:56:14,5.0.6.0,4,blackindirect,6,31,2450,minus1,0,b04.bmp,Judgeindirect,blacksquare2.gif,pic29.bmp,Mask.bmp,022117,11:56:14,5.0.6.0,4,whiteindirect,6,32,1421,plus1,0,w06.bmp,Judgeindirect,blacksquare2.gif,pic30.bmp,Mask.bmp,022117,11:56:14,5.0.6.0,4,blackindirect,6,33,1443,plus2,0,b05.bmp,Judgeindirect,blacksquare2.gif,pic24.bmp,Mask.bmp,022117,11:56:14,5.0.6.0,4,blackindirect,6,34,1593,minus1,0,b07.bmp,Judgeindirect,blacksquare2.gif,pic27.bmp,Mask.bmp,022117,11:56:14,5.0.6.0,4,neutral,6,35,1400,minus2,0,GREY.bmp,Judgeindirect,blacksquare2.gif,pic45.bmp,Mask.bmp,022117,11:56:14,5.0.6.0,4,blackindirect,6,36,1630,minus1,0,b08.bmp,Judgeindirect,blacksquare2.gif,pic13.bmp,Mask.bmp,022117,11:56:14,5.0.6.0,4,blackindirect,6,37,1211,plus1,0,b02.bmp,Judgeindirect,blacksquare2.gif,pic46.bmp,Mask.bmp,022117,11:56:14,5.0.6.0,4,neutral,6,38,1914,plus2,0,GREY.bmp,Judgeindirect,blacksquare2.gif,pic54.bmp,Mask.bmp,022117,11:56:14,5.0.6.0,4,neutral,6,39,1787,plus1,0,GREY.bmp,Judgeindirect,blacksquare2.gif,pic44.bmp,Mask.bmp,022117,11:56:14,5.0.6.0,4,whiteindirect,6,40,1202,minus1,0,b11.jpg,Judgeindirect,blacksquare2.gif,pic62.bmp,Mask.bmp,022117,11:56:14,5.0.6.0,4,neutral,6,41,2521,minus2,0,GREY.bmp,Judgeindirect,blacksquare2.gif,pic40.bmp,Mask.bmp,022117,11:56:14,5.0.6.0,4,blackindirect,6,42,1530,plus1,0,b12.bmp,Judgeindirect,blacksquare2.gif,pic51.bmp,Mask.bmp,022117,11:56:14,5.0.6.0,4,blackindirect,6,43,3891,plus1,0,b11.bmp,Judgeindirect,blacksquare2.gif,pic42.bmp,Mask.bmp,022117,11:56:14,5.0.6.0,4,blackindirect,6,44,1187,plus2,0,b10.bmp,Judgeindirect,blacksquare2.gif,pic28.bmp,Mask.bmp,022117,11:56:14,5.0.6.0,4,neutral,6,45,1811,plus1,0,GREY.bmp,Judgeindirect,blacksquare2.gif,pic58.bmp,Mask.bmp,022117,11:56:14,5.0.6.0,4,whiteindirect,6,46,2057,minus1,0,w09.bmp,Judgeindirect,blacksquare2.gif,pic9.bmp,Mask.bmp,022117,11:56:14,5.0.6.0,4,whiteindirect,6,47,1781,minus2,0,w04.bmp,Judgeindirect,blacksquare2.gif,pic2.bmp,Mask.bmp,022117,11:56:14,5.0.6.0,4,whiteindirect,6,48,1516,minus1,0,b12.jpg,Judgeindirect,blacksquare2.gif,pic64.bmp,Mask.bmp,022117,11:56:14,5.0.6.0,4,blackindirect,6,49,1197,minus1,0,b06.bmp,Judgeindirect,blacksquare2.gif,pic15.bmp,Mask.bmp,022117,11:56:14,5.0.6.0,4,whiteindirect,6,50,1468,minus2,0,b10.jpg,Judgeindirect,blacksquare2.gif,pic53.bmp,Mask.bmp,022117,11:56:14,5.0.6.0,4,neutral,6,51,1488,minus1,0,GREY.bmp,Judgeindirect,blacksquare2.gif,pic8.bmp,Mask.bmp,022117,11:56:14,5.0.6.0,4,blackindirect,6,52,1515,minus1,0,b03.bmp,Judgeindirect,blacksquare2.gif,pic57.bmp,Mask.bmp,022117,11:56:14,5.0.6.0,4,whiteindirect,6,53,2269,minus1,0,w08.bmp,Judgeindirect,blacksquare2.gif,pic70.bmp,Mask.bmp,022117,11:56:14,5.0.6.0,4,whiteindirect,6,54,1384,plus1,0,w06.bmp,Judgeindirect,blacksquare2.gif,pic39.bmp,Mask.bmp,022117,11:56:14,5.0.6.0,4,whiteindirect,6,55,2031,plus2,0,w04.bmp,Judgeindirect,blacksquare2.gif,pic34.bmp,Mask.bmp,022117,11:56:14,5.0.6.0,4,neutral,6,56,1348,minus2,0,GREY.bmp,Judgeindirect,blacksquare2.gif,pic74.bmp,Mask.bmp,022117,11:56:14,5.0.6.0,4,neutral,6,57,1341,plus1,0,GREY.bmp,Judgeindirect,blacksquare2.gif,pic22.bmp,Mask.bmp,022117,11:56:14,5.0.6.0,4,neutral,6,58,1510,plus1,0,GREY.bmp,Judgeindirect,blacksquare2.gif,pic50.bmp,Mask.bmp,022117,11:56:14,5.0.6.0,4,blackindirect,6,59,1304,plus2,0,b09.bmp,Judgeindirect,blacksquare2.gif,pic59.bmp,Mask.bmp,022117,11:56:14,5.0.6.0,4,neutral,6,60,1099,plus1,0,GREY.bmp,Judgeindirect,blacksquare2.gif,pic18.bmp,Mask.bmp,022117,11:56:14,5.0.6.0,4,whiteindirect,6,61,1454,minus1,0,w07.bmp,Judgeindirect,blacksquare2.gif,pic63.bmp,Mask.bmp,022117,11:56:14,5.0.6.0,4,blackindirect,6,62,1435,plus1,0,b01.bmp,Judgeindirect,blacksquare2.gif,pic73.bmp,Mask.bmp,022117,11:56:14,5.0.6.0,4,whiteindirect,6,63,1184,plus2,0,w03.bmp,Judgeindirect,blacksquare2.gif,pic32.bmp,Mask.bmp,022117,11:56:14,5.0.6.0,4,neutral,6,64,1327,plus2,0,GREY.bmp,Judgeindirect,blacksquare2.gif,pic14.bmp,Mask.bmp,022117,11:56:14,5.0.6.0,4,blackindirect,6,65,1194,plus1,0,b04.bmp,Judgeindirect,blacksquare2.gif,pic16.bmp,Mask.bmp,022117,11:56:14,5.0.6.0,4,whiteindirect,6,66,2865,plus1,0,w09.bmp,Judgeindirect,blacksquare2.gif,pic56.bmp,Mask.bmp,022117,11:56:14,5.0.6.0,4,neutral,6,67,1811,minus2,0,GREY.bmp,Judgeindirect,blacksquare2.gif,pic17.bmp,Mask.bmp,022117,11:56:14,5.0.6.0,4,neutral,6,68,1473,minus2,0,GREY.bmp,Judgeindirect,blacksquare2.gif,pic43.bmp,Mask.bmp,022117,11:56:14,5.0.6.0,4,whiteindirect,6,69,1701,minus1,0,w01.bmp,Judgeindirect,blacksquare2.gif,pic3.bmp,Mask.bmp,022117,11:56:14,5.0.6.0,4,whiteindirect,6,70,1264,minus2,0,w02.bmp,Judgeindirect,blacksquare2.gif,pic38.bmp,Mask.bmp,022117,11:56:14,5.0.6.0,4,whiteindirect,6,71,1092,plus1,0,b11.jpg,Judgeindirect,blacksquare2.gif,pic52.bmp,Mask.bmp,022117,11:56:14,5.0.6.0,4,whiteindirect,6,72,2079,plus2,0,w05.bmp,Judgeindirect,blacksquare2.gif,pic68.bmp,Mask.bmp,022117,11:56:14,5.0.6.0,4,gender,7,1,21306,1,1,0,demo,0,0,0,022117,11:56:14,5.0.6.0,4,age,7,1,21306,18,1,0,demo,0,0,0,022117,11:56:14,5.0.6.0,4,ethnicity,7,1,21306,Other,1,0,demo,0,0,0,022117,13:26:03,5.0.6.0,5,practice,1,1,5144,57,1,sample.bmp,orient1,blacksquare2.gif,pic76.bmp,Mask.bmp,022117,13:26:03,5.0.6.0,5,blackdirect,4,1,7355,plus1,0,b11.bmp,Judgedirect,blacksquare2.gif,pic102.bmp,Mask.bmp,022117,13:26:03,5.0.6.0,5,whitedirect,4,2,2990,plus1,0,w04.bmp,Judgedirect,blacksquare2.gif,pic114.bmp,Mask.bmp,022117,13:26:03,5.0.6.0,5,blackdirect,4,3,3147,plus1,0,b04.bmp,Judgedirect,blacksquare2.gif,pic105.bmp,Mask.bmp,022117,13:26:03,5.0.6.0,5,whitedirect,4,4,1434,plus1,0,w09.bmp,Judgedirect,blacksquare2.gif,pic82.bmp,Mask.bmp,022117,13:26:03,5.0.6.0,5,blackdirect,4,5,1808,minus1,0,b05.bmp,Judgedirect,blacksquare2.gif,pic118.bmp,Mask.bmp,022117,13:26:03,5.0.6.0,5,whitedirect,4,6,662,minus1,0,b11.jpg,Judgedirect,blacksquare2.gif,pic107.bmp,Mask.bmp,022117,13:26:03,5.0.6.0,5,blackdirect,4,7,619,minus1,0,b07.bmp,Judgedirect,blacksquare2.gif,pic103.bmp,Mask.bmp,022117,13:26:03,5.0.6.0,5,whitedirect,4,8,1777,plus1,0,w01.bmp,Judgedirect,blacksquare2.gif,pic79.bmp,Mask.bmp,022117,13:26:03,5.0.6.0,5,blackdirect,4,9,2065,plus1,0,b09.bmp,Judgedirect,blacksquare2.gif,pic104.bmp,Mask.bmp,022117,13:26:03,5.0.6.0,5,whitedirect,4,10,1140,plus1,0,w06.bmp,Judgedirect,blacksquare2.gif,pic113.bmp,Mask.bmp,022117,13:26:03,5.0.6.0,5,blackdirect,4,11,1790,plus1,0,b02.bmp,Judgedirect,blacksquare2.gif,pic81.bmp,Mask.bmp,022117,13:26:03,5.0.6.0,5,whitedirect,4,12,4676,plus1,0,w05.bmp,Judgedirect,blacksquare2.gif,pic115.bmp,Mask.bmp,022117,13:26:03,5.0.6.0,5,blackdirect,4,13,1157,minus1,0,b01.bmp,Judgedirect,blacksquare2.gif,pic78.bmp,Mask.bmp,022117,13:26:03,5.0.6.0,5,whitedirect,4,14,1078,minus1,0,w07.bmp,Judgedirect,blacksquare2.gif,pic112.bmp,Mask.bmp,022117,13:26:03,5.0.6.0,5,blackdirect,4,15,434,minus1,0,b03.bmp,Judgedirect,blacksquare2.gif,pic111.bmp,Mask.bmp,022117,13:26:03,5.0.6.0,5,whitedirect,4,16,1064,plus1,0,w08.bmp,Judgedirect,blacksquare2.gif,pic110.bmp,Mask.bmp,022117,13:26:03,5.0.6.0,5,blackdirect,4,17,885,minus1,0,b06.bmp,Judgedirect,blacksquare2.gif,pic116.bmp,Mask.bmp,022117,13:26:03,5.0.6.0,5,whitedirect,4,18,633,minus1,0,b12.jpg,Judgedirect,blacksquare2.gif,pic109.bmp,Mask.bmp,022117,13:26:03,5.0.6.0,5,blackdirect,4,19,1759,minus1,0,b12.bmp,Judgedirect,blacksquare2.gif,pic101.bmp,Mask.bmp,022117,13:26:03,5.0.6.0,5,whitedirect,4,20,1559,plus1,0,w02.bmp,Judgedirect,blacksquare2.gif,pic117.bmp,Mask.bmp,022117,13:26:03,5.0.6.0,5,blackdirect,4,21,3679,minus1,0,b08.bmp,Judgedirect,blacksquare2.gif,pic100.bmp,Mask.bmp,022117,13:26:03,5.0.6.0,5,whitedirect,4,22,497,minus1,0,b10.jpg,Judgedirect,blacksquare2.gif,pic80.bmp,Mask.bmp,022117,13:26:03,5.0.6.0,5,blackdirect,4,23,444,minus1,0,b10.bmp,Judgedirect,blacksquare2.gif,pic106.bmp,Mask.bmp,022117,13:26:03,5.0.6.0,5,whitedirect,4,24,986,minus1,0,w03.bmp,Judgedirect,blacksquare2.gif,pic108.bmp,Mask.bmp,022117,13:26:03,5.0.6.0,5,neutral,6,1,4352,minus1,0,GREY.bmp,Judgeindirect,blacksquare2.gif,pic33.bmp,Mask.bmp,022117,13:26:03,5.0.6.0,5,whiteindirect,6,2,2062,plus1,0,w07.bmp,Judgeindirect,blacksquare2.gif,pic16.bmp,Mask.bmp,022117,13:26:03,5.0.6.0,5,whiteindirect,6,3,466,plus1,0,w06.bmp,Judgeindirect,blacksquare2.gif,pic11.bmp,Mask.bmp,022117,13:26:03,5.0.6.0,5,whiteindirect,6,4,847,plus1,0,w08.bmp,Judgeindirect,blacksquare2.gif,pic7.bmp,Mask.bmp,022117,13:26:03,5.0.6.0,5,neutral,6,5,3236,plus1,0,GREY.bmp,Judgeindirect,blacksquare2.gif,pic50.bmp,Mask.bmp,022117,13:26:03,5.0.6.0,5,neutral,6,6,3359,minus1,0,GREY.bmp,Judgeindirect,blacksquare2.gif,pic1.bmp,Mask.bmp,022117,13:26:03,5.0.6.0,5,blackindirect,6,7,686,minus1,0,b10.bmp,Judgeindirect,blacksquare2.gif,pic49.bmp,Mask.bmp,022117,13:26:03,5.0.6.0,5,neutral,6,8,2018,plus1,0,GREY.bmp,Judgeindirect,blacksquare2.gif,pic26.bmp,Mask.bmp,022117,13:26:03,5.0.6.0,5,blackindirect,6,9,895,minus1,0,b03.bmp,Judgeindirect,blacksquare2.gif,pic56.bmp,Mask.bmp,022117,13:26:03,5.0.6.0,5,whiteindirect,6,10,1067,plus1,0,w05.bmp,Judgeindirect,blacksquare2.gif,pic42.bmp,Mask.bmp,022117,13:26:03,5.0.6.0,5,whiteindirect,6,11,919,minus1,0,b10.jpg,Judgeindirect,blacksquare2.gif,pic25.bmp,Mask.bmp,022117,13:26:03,5.0.6.0,5,neutral,6,12,1434,minus1,0,GREY.bmp,Judgeindirect,blacksquare2.gif,pic32.bmp,Mask.bmp,022117,13:26:03,5.0.6.0,5,whiteindirect,6,13,1119,minus1,0,w04.bmp,Judgeindirect,blacksquare2.gif,pic38.bmp,Mask.bmp,022117,13:26:03,5.0.6.0,5,neutral,6,14,705,minus1,0,GREY.bmp,Judgeindirect,blacksquare2.gif,pic47.bmp,Mask.bmp,022117,13:26:03,5.0.6.0,5,neutral,6,15,1892,plus1,0,GREY.bmp,Judgeindirect,blacksquare2.gif,pic3.bmp,Mask.bmp,022117,13:26:03,5.0.6.0,5,neutral,6,16,1095,plus1,0,GREY.bmp,Judgeindirect,blacksquare2.gif,pic10.bmp,Mask.bmp,022117,13:26:03,5.0.6.0,5,blackindirect,6,17,1258,minus1,0,b09.bmp,Judgeindirect,blacksquare2.gif,pic68.bmp,Mask.bmp,022117,13:26:03,5.0.6.0,5,blackindirect,6,18,3983,minus1,0,b04.bmp,Judgeindirect,blacksquare2.gif,pic14.bmp,Mask.bmp,022117,13:26:03,5.0.6.0,5,neutral,6,19,2091,plus1,0,GREY.bmp,Judgeindirect,blacksquare2.gif,pic12.bmp,Mask.bmp,022117,13:26:03,5.0.6.0,5,neutral,6,20,3190,minus1,0,GREY.bmp,Judgeindirect,blacksquare2.gif,pic20.bmp,Mask.bmp,022117,13:26:03,5.0.6.0,5,blackindirect,6,21,379,minus1,0,b01.bmp,Judgeindirect,blacksquare2.gif,pic27.bmp,Mask.bmp,022117,13:26:03,5.0.6.0,5,blackindirect,6,22,547,minus1,0,b08.bmp,Judgeindirect,blacksquare2.gif,pic52.bmp,Mask.bmp,022117,13:26:03,5.0.6.0,5,whiteindirect,6,23,1229,plus1,0,w02.bmp,Judgeindirect,blacksquare2.gif,pic19.bmp,Mask.bmp,022117,13:26:03,5.0.6.0,5,whiteindirect,6,24,1130,minus1,0,b11.jpg,Judgeindirect,blacksquare2.gif,pic59.bmp,Mask.bmp,022117,13:26:03,5.0.6.0,5,neutral,6,25,1316,plus1,0,GREY.bmp,Judgeindirect,blacksquare2.gif,pic37.bmp,Mask.bmp,022117,13:26:03,5.0.6.0,5,blackindirect,6,26,1878,minus1,0,b02.bmp,Judgeindirect,blacksquare2.gif,pic53.bmp,Mask.bmp,022117,13:26:03,5.0.6.0,5,whiteindirect,6,27,1705,plus1,0,w03.bmp,Judgeindirect,blacksquare2.gif,pic9.bmp,Mask.bmp,022117,13:26:03,5.0.6.0,5,neutral,6,28,828,minus1,0,GREY.bmp,Judgeindirect,blacksquare2.gif,pic75.bmp,Mask.bmp,022117,13:26:03,5.0.6.0,5,blackindirect,6,29,482,minus1,0,b07.bmp,Judgeindirect,blacksquare2.gif,pic71.bmp,Mask.bmp,022117,13:26:03,5.0.6.0,5,neutral,6,30,2999,plus1,0,GREY.bmp,Judgeindirect,blacksquare2.gif,pic41.bmp,Mask.bmp,022117,13:26:03,5.0.6.0,5,whiteindirect,6,31,883,minus1,0,b12.jpg,Judgeindirect,blacksquare2.gif,pic15.bmp,Mask.bmp,022117,13:26:03,5.0.6.0,5,blackindirect,6,32,815,minus1,0,b05.bmp,Judgeindirect,blacksquare2.gif,pic8.bmp,Mask.bmp,022117,13:26:03,5.0.6.0,5,neutral,6,33,2222,plus1,0,GREY.bmp,Judgeindirect,blacksquare2.gif,pic66.bmp,Mask.bmp,022117,13:26:03,5.0.6.0,5,whiteindirect,6,34,1371,minus1,0,w01.bmp,Judgeindirect,blacksquare2.gif,pic36.bmp,Mask.bmp,022117,13:26:03,5.0.6.0,5,blackindirect,6,35,243,minus1,0,b11.bmp,Judgeindirect,blacksquare2.gif,pic44.bmp,Mask.bmp,022117,13:26:03,5.0.6.0,5,whiteindirect,6,36,362,minus1,0,w09.bmp,Judgeindirect,blacksquare2.gif,pic54.bmp,Mask.bmp,022117,13:26:03,5.0.6.0,5,blackindirect,6,37,379,minus1,0,b06.bmp,Judgeindirect,blacksquare2.gif,pic51.bmp,Mask.bmp,022117,13:26:03,5.0.6.0,5,whiteindirect,6,38,1091,plus1,0,w07.bmp,Judgeindirect,blacksquare2.gif,pic21.bmp,Mask.bmp,022117,13:26:03,5.0.6.0,5,whiteindirect,6,39,1287,plus1,0,w01.bmp,Judgeindirect,blacksquare2.gif,pic65.bmp,Mask.bmp,022117,13:26:03,5.0.6.0,5,whiteindirect,6,40,722,minus1,0,b10.jpg,Judgeindirect,blacksquare2.gif,pic67.bmp,Mask.bmp,022117,13:26:03,5.0.6.0,5,blackindirect,6,41,493,minus1,0,b12.bmp,Judgeindirect,blacksquare2.gif,pic40.bmp,Mask.bmp,022117,13:26:03,5.0.6.0,5,whiteindirect,6,42,1305,plus1,0,w03.bmp,Judgeindirect,blacksquare2.gif,pic4.bmp,Mask.bmp,022117,13:26:03,5.0.6.0,5,neutral,6,43,1436,plus1,0,GREY.bmp,Judgeindirect,blacksquare2.gif,pic5.bmp,Mask.bmp,022117,13:26:03,5.0.6.0,5,neutral,6,44,825,plus1,0,GREY.bmp,Judgeindirect,blacksquare2.gif,pic2.bmp,Mask.bmp,022117,13:26:03,5.0.6.0,5,blackindirect,6,45,664,minus1,0,b10.bmp,Judgeindirect,blacksquare2.gif,pic72.bmp,Mask.bmp,022117,13:26:03,5.0.6.0,5,blackindirect,6,46,557,minus1,0,b01.bmp,Judgeindirect,blacksquare2.gif,pic29.bmp,Mask.bmp,022117,13:26:03,5.0.6.0,5,neutral,6,47,2118,minus1,0,GREY.bmp,Judgeindirect,blacksquare2.gif,pic74.bmp,Mask.bmp,022117,13:26:03,5.0.6.0,5,whiteindirect,6,48,319,minus1,0,b12.jpg,Judgeindirect,blacksquare2.gif,pic62.bmp,Mask.bmp,022117,13:26:03,5.0.6.0,5,whiteindirect,6,49,986,plus1,0,w06.bmp,Judgeindirect,blacksquare2.gif,pic17.bmp,Mask.bmp,022117,13:26:03,5.0.6.0,5,whiteindirect,6,50,650,minus1,0,b11.jpg,Judgeindirect,blacksquare2.gif,pic63.bmp,Mask.bmp,022117,13:26:03,5.0.6.0,5,whiteindirect,6,51,3096,plus1,0,w09.bmp,Judgeindirect,blacksquare2.gif,pic18.bmp,Mask.bmp,022117,13:26:03,5.0.6.0,5,whiteindirect,6,52,4617,plus1,0,w08.bmp,Judgeindirect,blacksquare2.gif,pic31.bmp,Mask.bmp,022117,13:26:03,5.0.6.0,5,blackindirect,6,53,931,minus1,0,b06.bmp,Judgeindirect,blacksquare2.gif,pic34.bmp,Mask.bmp,022117,13:26:03,5.0.6.0,5,neutral,6,54,1205,plus1,0,GREY.bmp,Judgeindirect,blacksquare2.gif,pic48.bmp,Mask.bmp,022117,13:26:03,5.0.6.0,5,whiteindirect,6,55,1044,minus1,0,w04.bmp,Judgeindirect,blacksquare2.gif,pic28.bmp,Mask.bmp,022117,13:26:03,5.0.6.0,5,blackindirect,6,56,442,minus1,0,b03.bmp,Judgeindirect,blacksquare2.gif,pic23.bmp,Mask.bmp,022117,13:26:03,5.0.6.0,5,blackindirect,6,57,392,minus1,0,b05.bmp,Judgeindirect,blacksquare2.gif,pic24.bmp,Mask.bmp,022117,13:26:03,5.0.6.0,5,neutral,6,58,1608,plus1,0,GREY.bmp,Judgeindirect,blacksquare2.gif,pic70.bmp,Mask.bmp,022117,13:26:03,5.0.6.0,5,whiteindirect,6,59,391,plus1,0,w05.bmp,Judgeindirect,blacksquare2.gif,pic39.bmp,Mask.bmp,022117,13:26:03,5.0.6.0,5,whiteindirect,6,60,495,plus1,0,w02.bmp,Judgeindirect,blacksquare2.gif,pic46.bmp,Mask.bmp,022117,13:26:03,5.0.6.0,5,blackindirect,6,61,1891,plus1,0,b09.bmp,Judgeindirect,blacksquare2.gif,pic45.bmp,Mask.bmp,022117,13:26:03,5.0.6.0,5,blackindirect,6,62,1806,plus1,0,b12.bmp,Judgeindirect,blacksquare2.gif,pic69.bmp,Mask.bmp,022117,13:26:03,5.0.6.0,5,neutral,6,63,1004,plus1,0,GREY.bmp,Judgeindirect,blacksquare2.gif,pic43.bmp,Mask.bmp,022117,13:26:03,5.0.6.0,5,neutral,6,64,1547,plus1,0,GREY.bmp,Judgeindirect,blacksquare2.gif,pic64.bmp,Mask.bmp,022117,13:26:03,5.0.6.0,5,neutral,6,65,979,plus1,0,GREY.bmp,Judgeindirect,blacksquare2.gif,pic58.bmp,Mask.bmp,022117,13:26:03,5.0.6.0,5,blackindirect,6,66,987,minus1,0,b11.bmp,Judgeindirect,blacksquare2.gif,pic22.bmp,Mask.bmp,022117,13:26:03,5.0.6.0,5,blackindirect,6,67,243,minus1,0,b07.bmp,Judgeindirect,blacksquare2.gif,pic57.bmp,Mask.bmp,022117,13:26:03,5.0.6.0,5,neutral,6,68,961,plus1,0,GREY.bmp,Judgeindirect,blacksquare2.gif,pic6.bmp,Mask.bmp,022117,13:26:03,5.0.6.0,5,blackindirect,6,69,1027,minus1,0,b02.bmp,Judgeindirect,blacksquare2.gif,pic60.bmp,Mask.bmp,022117,13:26:03,5.0.6.0,5,blackindirect,6,70,393,minus1,0,b04.bmp,Judgeindirect,blacksquare2.gif,pic61.bmp,Mask.bmp,022117,13:26:03,5.0.6.0,5,neutral,6,71,1081,plus1,0,GREY.bmp,Judgeindirect,blacksquare2.gif,pic30.bmp,Mask.bmp,022117,13:26:03,5.0.6.0,5,blackindirect,6,72,1549,minus1,0,b08.bmp,Judgeindirect,blacksquare2.gif,pic55.bmp,Mask.bmp,022117,13:26:03,5.0.6.0,5,gender,7,1,11295,2,1,0,demo,0,0,0,022117,13:26:03,5.0.6.0,5,age,7,1,11295,21,1,0,demo,0,0,0,022117,13:26:03,5.0.6.0,5,ethnicity,7,1,11295,Latino or Hispanic,1,0,demo,0,0,0,022117,15:29:06,5.0.6.0,6,practice,1,1,13961,57,1,sample.bmp,orient1,blacksquare2.gif,pic76.bmp,Mask.bmp,022117,15:29:06,5.0.6.0,6,blackindirect,4,1,6736,minus1,0,b11.bmp,Judgeindirect,blacksquare2.gif,pic9.bmp,Mask.bmp,022117,15:29:06,5.0.6.0,6,blackindirect,4,2,2076,minus1,0,b04.bmp,Judgeindirect,blacksquare2.gif,pic3.bmp,Mask.bmp,022117,15:29:06,5.0.6.0,6,neutral,4,3,2207,plus2,0,GREY.bmp,Judgeindirect,blacksquare2.gif,pic46.bmp,Mask.bmp,022117,15:29:06,5.0.6.0,6,neutral,4,4,1540,plus2,0,GREY.bmp,Judgeindirect,blacksquare2.gif,pic34.bmp,Mask.bmp,022117,15:29:06,5.0.6.0,6,whiteindirect,4,5,2757,minus1,0,w04.bmp,Judgeindirect,blacksquare2.gif,pic64.bmp,Mask.bmp,022117,15:29:06,5.0.6.0,6,blackindirect,4,6,1717,plus1,0,b02.bmp,Judgeindirect,blacksquare2.gif,pic33.bmp,Mask.bmp,022117,15:29:06,5.0.6.0,6,neutral,4,7,798,plus1,0,GREY.bmp,Judgeindirect,blacksquare2.gif,pic38.bmp,Mask.bmp,022117,15:29:06,5.0.6.0,6,whiteindirect,4,8,1654,minus1,0,w02.bmp,Judgeindirect,blacksquare2.gif,pic74.bmp,Mask.bmp,022117,15:29:06,5.0.6.0,6,whiteindirect,4,9,1562,minus1,0,w06.bmp,Judgeindirect,blacksquare2.gif,pic52.bmp,Mask.bmp,022117,15:29:06,5.0.6.0,6,neutral,4,10,1354,plus1,0,GREY.bmp,Judgeindirect,blacksquare2.gif,pic11.bmp,Mask.bmp,022117,15:29:06,5.0.6.0,6,neutral,4,11,1987,plus1,0,GREY.bmp,Judgeindirect,blacksquare2.gif,pic12.bmp,Mask.bmp,022117,15:29:06,5.0.6.0,6,whiteindirect,4,12,3537,minus1,0,b10.jpg,Judgeindirect,blacksquare2.gif,pic18.bmp,Mask.bmp,022117,15:29:06,5.0.6.0,6,whiteindirect,4,13,1344,plus1,0,w08.bmp,Judgeindirect,blacksquare2.gif,pic6.bmp,Mask.bmp,022117,15:29:06,5.0.6.0,6,neutral,4,14,1066,plus1,0,GREY.bmp,Judgeindirect,blacksquare2.gif,pic13.bmp,Mask.bmp,022117,15:29:06,5.0.6.0,6,whiteindirect,4,15,1638,plus1,0,b12.jpg,Judgeindirect,blacksquare2.gif,pic42.bmp,Mask.bmp,022117,15:29:06,5.0.6.0,6,neutral,4,16,651,plus1,0,GREY.bmp,Judgeindirect,blacksquare2.gif,pic24.bmp,Mask.bmp,022117,15:29:06,5.0.6.0,6,blackindirect,4,17,2280,plus1,0,b03.bmp,Judgeindirect,blacksquare2.gif,pic27.bmp,Mask.bmp,022117,15:29:06,5.0.6.0,6,whiteindirect,4,18,2339,minus1,0,w03.bmp,Judgeindirect,blacksquare2.gif,pic63.bmp,Mask.bmp,022117,15:29:06,5.0.6.0,6,blackindirect,4,19,1443,plus1,0,b01.bmp,Judgeindirect,blacksquare2.gif,pic8.bmp,Mask.bmp,022117,15:29:06,5.0.6.0,6,neutral,4,20,5056,plus1,0,GREY.bmp,Judgeindirect,blacksquare2.gif,pic65.bmp,Mask.bmp,022117,15:29:06,5.0.6.0,6,whiteindirect,4,21,921,plus1,0,w01.bmp,Judgeindirect,blacksquare2.gif,pic1.bmp,Mask.bmp,022117,15:29:06,5.0.6.0,6,whiteindirect,4,22,467,plus1,0,w07.bmp,Judgeindirect,blacksquare2.gif,pic44.bmp,Mask.bmp,022117,15:29:06,5.0.6.0,6,neutral,4,23,608,plus1,0,GREY.bmp,Judgeindirect,blacksquare2.gif,pic26.bmp,Mask.bmp,022117,15:29:06,5.0.6.0,6,blackindirect,4,24,3104,minus1,0,b10.bmp,Judgeindirect,blacksquare2.gif,pic31.bmp,Mask.bmp,022117,15:29:06,5.0.6.0,6,neutral,4,25,1176,plus1,0,GREY.bmp,Judgeindirect,blacksquare2.gif,pic68.bmp,Mask.bmp,022117,15:29:06,5.0.6.0,6,neutral,4,26,1288,plus1,0,GREY.bmp,Judgeindirect,blacksquare2.gif,pic5.bmp,Mask.bmp,022117,15:29:06,5.0.6.0,6,neutral,4,27,628,plus1,0,GREY.bmp,Judgeindirect,blacksquare2.gif,pic4.bmp,Mask.bmp,022117,15:29:06,5.0.6.0,6,blackindirect,4,28,1482,minus1,0,b05.bmp,Judgeindirect,blacksquare2.gif,pic50.bmp,Mask.bmp,022117,15:29:06,5.0.6.0,6,whiteindirect,4,29,421,minus1,0,b11.jpg,Judgeindirect,blacksquare2.gif,pic40.bmp,Mask.bmp,022117,15:29:06,5.0.6.0,6,whiteindirect,4,30,868,plus1,0,w09.bmp,Judgeindirect,blacksquare2.gif,pic71.bmp,Mask.bmp,022117,15:29:06,5.0.6.0,6,blackindirect,4,31,2457,minus1,0,b08.bmp,Judgeindirect,blacksquare2.gif,pic7.bmp,Mask.bmp,022117,15:29:06,5.0.6.0,6,blackindirect,4,32,3604,minus1,0,b07.bmp,Judgeindirect,blacksquare2.gif,pic10.bmp,Mask.bmp,022117,15:29:06,5.0.6.0,6,whiteindirect,4,33,2760,plus1,0,w05.bmp,Judgeindirect,blacksquare2.gif,pic72.bmp,Mask.bmp,022117,15:29:06,5.0.6.0,6,whiteindirect,4,34,1871,plus1,0,w09.bmp,Judgeindirect,blacksquare2.gif,pic17.bmp,Mask.bmp,022117,15:29:06,5.0.6.0,6,whiteindirect,4,35,2715,plus1,0,w08.bmp,Judgeindirect,blacksquare2.gif,pic61.bmp,Mask.bmp,022117,15:29:06,5.0.6.0,6,neutral,4,36,1523,plus1,0,GREY.bmp,Judgeindirect,blacksquare2.gif,pic58.bmp,Mask.bmp,022117,15:29:06,5.0.6.0,6,neutral,4,37,1309,plus1,0,GREY.bmp,Judgeindirect,blacksquare2.gif,pic55.bmp,Mask.bmp,022117,15:29:06,5.0.6.0,6,blackindirect,4,38,1552,minus1,0,b06.bmp,Judgeindirect,blacksquare2.gif,pic62.bmp,Mask.bmp,022117,15:29:06,5.0.6.0,6,neutral,4,39,2752,plus1,0,GREY.bmp,Judgeindirect,blacksquare2.gif,pic23.bmp,Mask.bmp,022117,15:29:06,5.0.6.0,6,blackindirect,4,40,1479,minus1,0,b09.bmp,Judgeindirect,blacksquare2.gif,pic20.bmp,Mask.bmp,022117,15:29:06,5.0.6.0,6,whiteindirect,4,41,619,minus1,0,w04.bmp,Judgeindirect,blacksquare2.gif,pic29.bmp,Mask.bmp,022117,15:29:06,5.0.6.0,6,blackindirect,4,42,1793,minus1,0,b12.bmp,Judgeindirect,blacksquare2.gif,pic60.bmp,Mask.bmp,022117,15:29:06,5.0.6.0,6,whiteindirect,4,43,576,minus1,0,b12.jpg,Judgeindirect,blacksquare2.gif,pic66.bmp,Mask.bmp,022117,15:29:06,5.0.6.0,6,blackindirect,4,44,465,minus1,0,b01.bmp,Judgeindirect,blacksquare2.gif,pic22.bmp,Mask.bmp,022117,15:29:06,5.0.6.0,6,blackindirect,4,45,526,minus1,0,b03.bmp,Judgeindirect,blacksquare2.gif,pic39.bmp,Mask.bmp,022117,15:29:06,5.0.6.0,6,neutral,4,46,3081,minus1,0,GREY.bmp,Judgeindirect,blacksquare2.gif,pic32.bmp,Mask.bmp,022117,15:29:06,5.0.6.0,6,blackindirect,4,47,346,minus1,0,b07.bmp,Judgeindirect,blacksquare2.gif,pic57.bmp,Mask.bmp,022117,15:29:06,5.0.6.0,6,neutral,4,48,1412,plus1,0,GREY.bmp,Judgeindirect,blacksquare2.gif,pic25.bmp,Mask.bmp,022117,15:29:06,5.0.6.0,6,blackindirect,4,49,1170,plus1,0,b02.bmp,Judgeindirect,blacksquare2.gif,pic37.bmp,Mask.bmp,022117,15:29:06,5.0.6.0,6,blackindirect,4,50,1242,minus1,0,b10.bmp,Judgeindirect,blacksquare2.gif,pic47.bmp,Mask.bmp,022117,15:29:06,5.0.6.0,6,whiteindirect,4,51,952,plus1,0,w05.bmp,Judgeindirect,blacksquare2.gif,pic30.bmp,Mask.bmp,022117,15:29:06,5.0.6.0,6,blackindirect,4,52,1569,minus1,0,b06.bmp,Judgeindirect,blacksquare2.gif,pic36.bmp,Mask.bmp,022117,15:29:06,5.0.6.0,6,blackindirect,4,53,1769,minus1,0,b11.bmp,Judgeindirect,blacksquare2.gif,pic15.bmp,Mask.bmp,022117,15:29:06,5.0.6.0,6,neutral,4,54,1016,plus1,0,GREY.bmp,Judgeindirect,blacksquare2.gif,pic59.bmp,Mask.bmp,022117,15:29:06,5.0.6.0,6,whiteindirect,4,55,1382,minus1,0,b11.jpg,Judgeindirect,blacksquare2.gif,pic43.bmp,Mask.bmp,022117,15:29:06,5.0.6.0,6,blackindirect,4,56,2254,minus1,0,b05.bmp,Judgeindirect,blacksquare2.gif,pic21.bmp,Mask.bmp,022117,15:29:06,5.0.6.0,6,whiteindirect,4,57,2321,plus1,0,w07.bmp,Judgeindirect,blacksquare2.gif,pic28.bmp,Mask.bmp,022117,15:29:06,5.0.6.0,6,neutral,4,58,386,plus1,0,GREY.bmp,Judgeindirect,blacksquare2.gif,pic41.bmp,Mask.bmp,022117,15:29:06,5.0.6.0,6,whiteindirect,4,59,275,plus1,0,w06.bmp,Judgeindirect,blacksquare2.gif,pic69.bmp,Mask.bmp,022117,15:29:06,5.0.6.0,6,whiteindirect,4,60,296,plus1,0,w02.bmp,Judgeindirect,blacksquare2.gif,pic48.bmp,Mask.bmp,022117,15:29:06,5.0.6.0,6,neutral,4,61,308,plus1,0,GREY.bmp,Judgeindirect,blacksquare2.gif,pic19.bmp,Mask.bmp,022117,15:29:06,5.0.6.0,6,blackindirect,4,62,2344,minus1,0,b12.bmp,Judgeindirect,blacksquare2.gif,pic54.bmp,Mask.bmp,022117,15:29:06,5.0.6.0,6,blackindirect,4,63,848,minus1,0,b04.bmp,Judgeindirect,blacksquare2.gif,pic75.bmp,Mask.bmp,022117,15:29:06,5.0.6.0,6,blackindirect,4,64,253,minus1,0,b08.bmp,Judgeindirect,blacksquare2.gif,pic53.bmp,Mask.bmp,022117,15:29:06,5.0.6.0,6,blackindirect,4,65,1307,minus1,0,b09.bmp,Judgeindirect,blacksquare2.gif,pic16.bmp,Mask.bmp,022117,15:29:06,5.0.6.0,6,whiteindirect,4,66,278,minus1,0,b10.jpg,Judgeindirect,blacksquare2.gif,pic51.bmp,Mask.bmp,022117,15:29:06,5.0.6.0,6,whiteindirect,4,67,803,plus1,0,w01.bmp,Judgeindirect,blacksquare2.gif,pic73.bmp,Mask.bmp,022117,15:29:06,5.0.6.0,6,neutral,4,68,1146,minus1,0,GREY.bmp,Judgeindirect,blacksquare2.gif,pic49.bmp,Mask.bmp,022117,15:29:06,5.0.6.0,6,whiteindirect,4,69,1915,minus1,0,w03.bmp,Judgeindirect,blacksquare2.gif,pic45.bmp,Mask.bmp,022117,15:29:06,5.0.6.0,6,neutral,4,70,868,plus1,0,GREY.bmp,Judgeindirect,blacksquare2.gif,pic67.bmp,Mask.bmp,022117,15:29:06,5.0.6.0,6,neutral,4,71,313,plus1,0,GREY.bmp,Judgeindirect,blacksquare2.gif,pic2.bmp,Mask.bmp,022117,15:29:06,5.0.6.0,6,neutral,4,72,308,plus1,0,GREY.bmp,Judgeindirect,blacksquare2.gif,pic70.bmp,Mask.bmp,022117,15:29:06,5.0.6.0,6,whitedirect,6,1,1256,minus1,0,b10.jpg,Judgedirect,blacksquare2.gif,pic115.bmp,Mask.bmp,022117,15:29:06,5.0.6.0,6,blackdirect,6,2,317,minus1,0,b10.bmp,Judgedirect,blacksquare2.gif,pic108.bmp,Mask.bmp,022117,15:29:06,5.0.6.0,6,whitedirect,6,3,1136,minus1,0,w04.bmp,Judgedirect,blacksquare2.gif,pic110.bmp,Mask.bmp,022117,15:29:06,5.0.6.0,6,blackdirect,6,4,1122,minus1,0,b02.bmp,Judgedirect,blacksquare2.gif,pic117.bmp,Mask.bmp,022117,15:29:06,5.0.6.0,6,whitedirect,6,5,796,plus1,0,w05.bmp,Judgedirect,blacksquare2.gif,pic111.bmp,Mask.bmp,022117,15:29:06,5.0.6.0,6,blackdirect,6,6,996,minus1,0,b08.bmp,Judgedirect,blacksquare2.gif,pic105.bmp,Mask.bmp,022117,15:29:06,5.0.6.0,6,whitedirect,6,7,1555,minus1,0,w02.bmp,Judgedirect,blacksquare2.gif,pic101.bmp,Mask.bmp,022117,15:29:06,5.0.6.0,6,blackdirect,6,8,811,minus1,0,b11.bmp,Judgedirect,blacksquare2.gif,pic78.bmp,Mask.bmp,022117,15:29:06,5.0.6.0,6,whitedirect,6,9,698,plus1,0,w07.bmp,Judgedirect,blacksquare2.gif,pic82.bmp,Mask.bmp,022117,15:29:06,5.0.6.0,6,blackdirect,6,10,1206,minus1,0,b04.bmp,Judgedirect,blacksquare2.gif,pic100.bmp,Mask.bmp,022117,15:29:06,5.0.6.0,6,whitedirect,6,11,1861,plus1,0,w09.bmp,Judgedirect,blacksquare2.gif,pic112.bmp,Mask.bmp,022117,15:29:06,5.0.6.0,6,blackdirect,6,12,1313,minus1,0,b01.bmp,Judgedirect,blacksquare2.gif,pic114.bmp,Mask.bmp,022117,15:29:06,5.0.6.0,6,whitedirect,6,13,1875,plus1,0,w08.bmp,Judgedirect,blacksquare2.gif,pic81.bmp,Mask.bmp,022117,15:29:06,5.0.6.0,6,blackdirect,6,14,1270,minus1,0,b09.bmp,Judgedirect,blacksquare2.gif,pic102.bmp,Mask.bmp,022117,15:29:06,5.0.6.0,6,whitedirect,6,15,1466,minus1,0,w03.bmp,Judgedirect,blacksquare2.gif,pic118.bmp,Mask.bmp,022117,15:29:06,5.0.6.0,6,blackdirect,6,16,934,minus1,0,b07.bmp,Judgedirect,blacksquare2.gif,pic113.bmp,Mask.bmp,022117,15:29:06,5.0.6.0,6,whitedirect,6,17,344,minus1,0,b12.jpg,Judgedirect,blacksquare2.gif,pic109.bmp,Mask.bmp,022117,15:29:06,5.0.6.0,6,blackdirect,6,18,282,minus1,0,b06.bmp,Judgedirect,blacksquare2.gif,pic116.bmp,Mask.bmp,022117,15:29:06,5.0.6.0,6,whitedirect,6,19,743,plus1,0,w06.bmp,Judgedirect,blacksquare2.gif,pic106.bmp,Mask.bmp,022117,15:29:06,5.0.6.0,6,blackdirect,6,20,737,minus1,0,b05.bmp,Judgedirect,blacksquare2.gif,pic103.bmp,Mask.bmp,022117,15:29:06,5.0.6.0,6,whitedirect,6,21,947,plus1,0,w01.bmp,Judgedirect,blacksquare2.gif,pic79.bmp,Mask.bmp,0