date,time,build,subject,trialcode,blocknum,trialnum,latency,response,correct,stimulus1,blockcode,stimulusitem2,stimulusitem3,stimulusitem4,stimulusitem540417,10:23:03,5.0.6.0,997,practice,1,1,725,57,1,sample.bmp,orient1,blacksquare2.gif,pic76.bmp,Mask.bmp,040417,10:23:03,5.0.6.0,997,whitedirect,4,1,1847,plus2,0,b12.jpg,Judgedirect,blacksquare2.gif,pic79.bmp,Mask.bmp,040417,10:23:03,5.0.6.0,997,blackdirect,4,2,54,plus2,0,b07.bmp,Judgedirect,blacksquare2.gif,pic80.bmp,Mask.bmp,040417,10:23:03,5.0.6.0,997,whitedirect,4,3,149,plus2,0,w04.bmp,Judgedirect,blacksquare2.gif,pic105.bmp,Mask.bmp,040417,10:23:03,5.0.6.0,997,blackdirect,4,4,183,plus2,0,b04.bmp,Judgedirect,blacksquare2.gif,pic82.bmp,Mask.bmp,040417,10:23:03,5.0.6.0,997,whitedirect,4,5,25,plus2,0,b11.jpg,Judgedirect,blacksquare2.gif,pic108.bmp,Mask.bmp,040417,10:23:03,5.0.6.0,997,blackdirect,4,6,49,plus2,0,b01.bmp,Judgedirect,blacksquare2.gif,pic117.bmp,Mask.bmp,040417,10:23:03,5.0.6.0,997,whitedirect,4,7,71,plus2,0,w05.bmp,Judgedirect,blacksquare2.gif,pic112.bmp,Mask.bmp,040417,10:23:03,5.0.6.0,997,blackdirect,4,8,70,plus2,0,b09.bmp,Judgedirect,blacksquare2.gif,pic113.bmp,Mask.bmp,040417,10:23:03,5.0.6.0,997,whitedirect,4,9,36,plus2,0,w02.bmp,Judgedirect,blacksquare2.gif,pic110.bmp,Mask.bmp,040417,10:23:03,5.0.6.0,997,blackdirect,4,10,35,plus2,0,b02.bmp,Judgedirect,blacksquare2.gif,pic78.bmp,Mask.bmp,040417,10:23:03,5.0.6.0,997,whitedirect,4,11,82,plus2,0,w08.bmp,Judgedirect,blacksquare2.gif,pic103.bmp,Mask.bmp,040417,10:23:03,5.0.6.0,997,blackdirect,4,12,120,plus2,0,b03.bmp,Judgedirect,blacksquare2.gif,pic102.bmp,Mask.bmp,040417,10:23:03,5.0.6.0,997,whitedirect,4,13,156,plus2,0,w03.bmp,Judgedirect,blacksquare2.gif,pic114.bmp,Mask.bmp,040417,10:23:03,5.0.6.0,997,blackdirect,4,14,231,plus2,0,b12.bmp,Judgedirect,blacksquare2.gif,pic111.bmp,Mask.bmp,040417,10:23:03,5.0.6.0,997,whitedirect,4,15,199,plus2,0,w06.bmp,Judgedirect,blacksquare2.gif,pic109.bmp,Mask.bmp,040417,10:23:03,5.0.6.0,997,blackdirect,4,16,127,plus2,0,b08.bmp,Judgedirect,blacksquare2.gif,pic106.bmp,Mask.bmp,040417,10:23:03,5.0.6.0,997,whitedirect,4,17,107,plus2,0,w09.bmp,Judgedirect,blacksquare2.gif,pic81.bmp,Mask.bmp,040417,10:23:03,5.0.6.0,997,blackdirect,4,18,96,plus2,0,b11.bmp,Judgedirect,blacksquare2.gif,pic104.bmp,Mask.bmp,040417,10:23:03,5.0.6.0,997,whitedirect,4,19,85,plus2,0,w01.bmp,Judgedirect,blacksquare2.gif,pic101.bmp,Mask.bmp,040417,10:23:03,5.0.6.0,997,blackdirect,4,20,83,plus2,0,b06.bmp,Judgedirect,blacksquare2.gif,pic107.bmp,Mask.bmp,040417,10:23:03,5.0.6.0,997,whitedirect,4,21,144,plus2,0,b10.jpg,Judgedirect,blacksquare2.gif,pic118.bmp,Mask.bmp,040417,10:23:03,5.0.6.0,997,blackdirect,4,22,123,plus2,0,b10.bmp,Judgedirect,blacksquare2.gif,pic100.bmp,Mask.bmp,040417,10:23:03,5.0.6.0,997,whitedirect,4,23,144,plus2,0,w07.bmp,Judgedirect,blacksquare2.gif,pic116.bmp,Mask.bmp,040417,10:23:03,5.0.6.0,997,blackdirect,4,24,171,plus2,0,b05.bmp,Judgedirect,blacksquare2.gif,pic115.bmp,Mask.bmp,040417,10:23:03,5.0.6.0,997,whiteindirect,6,1,861,plus2,0,w05.bmp,Judgeindirect,blacksquare2.gif,pic52.bmp,Mask.bmp,040417,10:23:03,5.0.6.0,997,neutral,6,2,212,plus2,0,GREY.bmp,Judgeindirect,blacksquare2.gif,pic71.bmp,Mask.bmp,040417,10:23:03,5.0.6.0,997,neutral,6,3,45,plus2,0,GREY.bmp,Judgeindirect,blacksquare2.gif,pic38.bmp,Mask.bmp,040417,10:23:03,5.0.6.0,997,neutral,6,4,84,plus2,0,GREY.bmp,Judgeindirect,blacksquare2.gif,pic58.bmp,Mask.bmp,040417,10:23:03,5.0.6.0,997,blackindirect,6,5,73,plus2,0,b09.bmp,Judgeindirect,blacksquare2.gif,pic29.bmp,Mask.bmp,040417,10:23:03,5.0.6.0,997,whiteindirect,6,6,79,plus2,0,w02.bmp,Judgeindirect,blacksquare2.gif,pic16.bmp,Mask.bmp,040417,10:23:03,5.0.6.0,997,whiteindirect,6,7,101,plus2,0,w01.bmp,Judgeindirect,blacksquare2.gif,pic31.bmp,Mask.bmp,040417,10:23:03,5.0.6.0,997,blackindirect,6,8,42,plus2,0,b01.bmp,Judgeindirect,blacksquare2.gif,pic65.bmp,Mask.bmp,040417,10:23:03,5.0.6.0,997,blackindirect,6,9,57,plus2,0,b03.bmp,Judgeindirect,blacksquare2.gif,pic13.bmp,Mask.bmp,040417,10:23:03,5.0.6.0,997,neutral,6,10,96,plus2,0,GREY.bmp,Judgeindirect,blacksquare2.gif,pic6.bmp,Mask.bmp,040417,10:23:03,5.0.6.0,997,neutral,6,11,110,plus2,0,GREY.bmp,Judgeindirect,blacksquare2.gif,pic17.bmp,Mask.bmp,040417,10:23:03,5.0.6.0,997,blackindirect,6,12,42,plus2,0,b04.bmp,Judgeindirect,blacksquare2.gif,pic10.bmp,Mask.bmp,040417,10:23:03,5.0.6.0,997,neutral,6,13,122,plus2,0,GREY.bmp,Judgeindirect,blacksquare2.gif,pic27.bmp,Mask.bmp,040417,10:23:03,5.0.6.0,997,blackindirect,6,14,142,plus2,0,b07.bmp,Judgeindirect,blacksquare2.gif,pic73.bmp,Mask.bmp,040417,10:23:03,5.0.6.0,997,blackindirect,6,15,105,plus2,0,b12.bmp,Judgeindirect,blacksquare2.gif,pic59.bmp,Mask.bmp,040417,10:23:03,5.0.6.0,997,neutral,6,16,126,plus2,0,GREY.bmp,Judgeindirect,blacksquare2.gif,pic62.bmp,Mask.bmp,040417,10:23:03,5.0.6.0,997,whiteindirect,6,17,106,plus2,0,w06.bmp,Judgeindirect,blacksquare2.gif,pic64.bmp,Mask.bmp,040417,10:23:03,5.0.6.0,997,neutral,6,18,167,plus2,0,GREY.bmp,Judgeindirect,blacksquare2.gif,pic49.bmp,Mask.bmp,040417,10:23:03,5.0.6.0,997,whiteindirect,6,19,144,plus2,0,w03.bmp,Judgeindirect,blacksquare2.gif,pic1.bmp,Mask.bmp,040417,10:23:03,5.0.6.0,997,whiteindirect,6,20,148,plus2,0,w09.bmp,Judgeindirect,blacksquare2.gif,pic25.bmp,Mask.bmp,040417,10:23:03,5.0.6.0,997,neutral,6,21,159,plus2,0,GREY.bmp,Judgeindirect,blacksquare2.gif,pic15.bmp,Mask.bmp,040417,10:23:03,5.0.6.0,997,neutral,6,22,90,plus2,0,GREY.bmp,Judgeindirect,blacksquare2.gif,pic20.bmp,Mask.bmp,040417,10:23:03,5.0.6.0,997,whiteindirect,6,23,95,plus2,0,b10.jpg,Judgeindirect,blacksquare2.gif,pic53.bmp,Mask.bmp,040417,10:23:03,5.0.6.0,997,whiteindirect,6,24,101,plus2,0,b12.jpg,Judgeindirect,blacksquare2.gif,pic9.bmp,Mask.bmp,040417,10:23:03,5.0.6.0,997,whiteindirect,6,25,129,plus2,0,w08.bmp,Judgeindirect,blacksquare2.gif,pic44.bmp,Mask.bmp,040417,10:23:03,5.0.6.0,997,neutral,6,26,133,plus2,0,GREY.bmp,Judgeindirect,blacksquare2.gif,pic37.bmp,Mask.bmp,040417,10:23:03,5.0.6.0,997,whiteindirect,6,27,137,plus2,0,w04.bmp,Judgeindirect,blacksquare2.gif,pic57.bmp,Mask.bmp,040417,10:23:03,5.0.6.0,997,neutral,6,28,140,plus2,0,GREY.bmp,Judgeindirect,blacksquare2.gif,pic3.bmp,Mask.bmp,040417,10:23:03,5.0.6.0,997,neutral,6,29,175,plus2,0,GREY.bmp,Judgeindirect,blacksquare2.gif,pic21.bmp,Mask.bmp,040417,10:23:03,5.0.6.0,997,whiteindirect,6,30,265,plus2,0,b11.jpg,Judgeindirect,blacksquare2.gif,pic36.bmp,Mask.bmp,040417,10:23:03,5.0.6.0,997,neutral,6,31,104,plus2,0,GREY.bmp,Judgeindirect,blacksquare2.gif,pic60.bmp,Mask.bmp,040417,10:23:03,5.0.6.0,997,blackindirect,6,32,92,plus2,0,b06.bmp,Judgeindirect,blacksquare2.gif,pic8.bmp,Mask.bmp,040417,10:23:03,5.0.6.0,997,whiteindirect,6,33,146,plus2,0,w07.bmp,Judgeindirect,blacksquare2.gif,pic24.bmp,Mask.bmp,040417,10:23:03,5.0.6.0,997,blackindirect,6,34,149,plus2,0,b08.bmp,Judgeindirect,blacksquare2.gif,pic69.bmp,Mask.bmp,040417,10:23:03,5.0.6.0,997,whiteindirect,6,35,112,plus2,0,w01.bmp,Judgeindirect,blacksquare2.gif,pic33.bmp,Mask.bmp,040417,10:23:03,5.0.6.0,997,blackindirect,6,36,140,plus2,0,b10.bmp,Judgeindirect,blacksquare2.gif,pic56.bmp,Mask.bmp,040417,10:23:03,5.0.6.0,997,blackindirect,6,37,128,plus2,0,b02.bmp,Judgeindirect,blacksquare2.gif,pic50.bmp,Mask.bmp,040417,10:23:03,5.0.6.0,997,neutral,6,38,124,plus2,0,GREY.bmp,Judgeindirect,blacksquare2.gif,pic48.bmp,Mask.bmp,040417,10:23:03,5.0.6.0,997,neutral,6,39,144,plus2,0,GREY.bmp,Judgeindirect,blacksquare2.gif,pic70.bmp,Mask.bmp,040417,10:23:03,5.0.6.0,997,neutral,6,40,147,plus2,0,GREY.bmp,Judgeindirect,blacksquare2.gif,pic34.bmp,Mask.bmp,040417,10:23:03,5.0.6.0,997,whiteindirect,6,41,127,plus2,0,b11.jpg,Judgeindirect,blacksquare2.gif,pic28.bmp,Mask.bmp,040417,10:23:03,5.0.6.0,997,whiteindirect,6,42,163,plus2,0,w02.bmp,Judgeindirect,blacksquare2.gif,pic74.bmp,Mask.bmp,040417,10:23:03,5.0.6.0,997,blackindirect,6,43,165,plus2,0,b11.bmp,Judgeindirect,blacksquare2.gif,pic54.bmp,Mask.bmp,040417,10:23:03,5.0.6.0,997,blackindirect,6,44,143,plus2,0,b05.bmp,Judgeindirect,blacksquare2.gif,pic5.bmp,Mask.bmp,040417,10:23:03,5.0.6.0,997,neutral,6,45,163,plus2,0,GREY.bmp,Judgeindirect,blacksquare2.gif,pic40.bmp,Mask.bmp,040417,10:23:03,5.0.6.0,997,whiteindirect,6,46,213,plus2,0,w06.bmp,Judgeindirect,blacksquare2.gif,pic72.bmp,Mask.bmp,040417,10:23:03,5.0.6.0,997,neutral,6,47,182,plus2,0,GREY.bmp,Judgeindirect,blacksquare2.gif,pic61.bmp,Mask.bmp,040417,10:23:03,5.0.6.0,997,blackindirect,6,48,223,plus2,0,b08.bmp,Judgeindirect,blacksquare2.gif,pic66.bmp,Mask.bmp,040417,10:23:03,5.0.6.0,997,blackindirect,6,49,120,plus2,0,b03.bmp,Judgeindirect,blacksquare2.gif,pic42.bmp,Mask.bmp,040417,10:23:03,5.0.6.0,997,blackindirect,6,50,100,plus2,0,b06.bmp,Judgeindirect,blacksquare2.gif,pic67.bmp,Mask.bmp,040417,10:23:03,5.0.6.0,997,whiteindirect,6,51,144,plus2,0,b10.jpg,Judgeindirect,blacksquare2.gif,pic18.bmp,Mask.bmp,040417,10:23:03,5.0.6.0,997,blackindirect,6,52,156,plus2,0,b10.bmp,Judgeindirect,blacksquare2.gif,pic75.bmp,Mask.bmp,040417,10:23:03,5.0.6.0,997,blackindirect,6,53,102,plus2,0,b07.bmp,Judgeindirect,blacksquare2.gif,pic43.bmp,Mask.bmp,040417,10:23:03,5.0.6.0,997,blackindirect,6,54,171,plus2,0,b04.bmp,Judgeindirect,blacksquare2.gif,pic32.bmp,Mask.bmp,040417,10:23:03,5.0.6.0,997,blackindirect,6,55,173,plus2,0,b12.bmp,Judgeindirect,blacksquare2.gif,pic68.bmp,Mask.bmp,040417,10:23:03,5.0.6.0,997,blackindirect,6,56,207,plus2,0,b11.bmp,Judgeindirect,blacksquare2.gif,pic22.bmp,Mask.bmp,040417,10:23:03,5.0.6.0,997,neutral,6,57,128,plus2,0,GREY.bmp,Judgeindirect,blacksquare2.gif,pic14.bmp,Mask.bmp,040417,10:23:03,5.0.6.0,997,whiteindirect,6,58,124,plus2,0,w03.bmp,Judgeindirect,blacksquare2.gif,pic51.bmp,Mask.bmp,040417,10:23:03,5.0.6.0,997,whiteindirect,6,59,95,plus2,0,w05.bmp,Judgeindirect,blacksquare2.gif,pic26.bmp,Mask.bmp,040417,10:23:03,5.0.6.0,997,neutral,6,60,165,plus2,0,GREY.bmp,Judgeindirect,blacksquare2.gif,pic2.bmp,Mask.bmp,040417,10:23:03,5.0.6.0,997,neutral,6,61,79,plus2,0,GREY.bmp,Judgeindirect,blacksquare2.gif,pic12.bmp,Mask.bmp,040417,10:23:03,5.0.6.0,997,blackindirect,6,62,101,plus2,0,b01.bmp,Judgeindirect,blacksquare2.gif,pic7.bmp,Mask.bmp,040417,10:23:03,5.0.6.0,997,whiteindirect,6,63,146,plus2,0,w07.bmp,Judgeindirect,blacksquare2.gif,pic4.bmp,Mask.bmp,040417,10:23:03,5.0.6.0,997,whiteindirect,6,64,133,plus2,0,w08.bmp,Judgeindirect,blacksquare2.gif,pic11.bmp,Mask.bmp,040417,10:23:03,5.0.6.0,997,whiteindirect,6,65,185,plus2,0,w09.bmp,Judgeindirect,blacksquare2.gif,pic19.bmp,Mask.bmp,040417,10:23:03,5.0.6.0,997,blackindirect,6,66,170,plus2,0,b02.bmp,Judgeindirect,blacksquare2.gif,pic39.bmp,Mask.bmp,040417,10:23:03,5.0.6.0,997,whiteindirect,6,67,180,plus2,0,b12.jpg,Judgeindirect,blacksquare2.gif,pic46.bmp,Mask.bmp,040417,10:23:03,5.0.6.0,997,neutral,6,68,198,plus2,0,GREY.bmp,Judgeindirect,blacksquare2.gif,pic47.bmp,Mask.bmp,040417,10:23:03,5.0.6.0,997,neutral,6,69,135,plus2,0,GREY.bmp,Judgeindirect,blacksquare2.gif,pic45.bmp,Mask.bmp,040417,10:23:03,5.0.6.0,997,blackindirect,6,70,162,plus2,0,b09.bmp,Judgeindirect,blacksquare2.gif,pic63.bmp,Mask.bmp,040417,10:23:03,5.0.6.0,997,whiteindirect,6,71,157,plus2,0,w04.bmp,Judgeindirect,blacksquare2.gif,pic23.bmp,Mask.bmp,040417,10:23:03,5.0.6.0,997,blackindirect,6,72,111,plus2,0,b05.bmp,Judgeindirect,blacksquare2.gif,pic55.bmp,Mask.bmp,040417,10:23:03,5.0.6.0,997,gender,7,1,6074,1,1,0,demo,0,0,0,040417,10:23:03,5.0.6.0,997,age,7,1,6074,26,1,0,demo,0,0,0,040417,10:23:03,5.0.6.0,997,ethnicity,7,1,6074,"White, non-Hispanic or Latino",1,0,demo,0,0,0,040517,15:10:07,5.0.6.0,3,practice,1,1,21606,57,1,sample.bmp,orient1,blacksquare2.gif,pic76.bmp,Mask.bmp,040517,15:10:07,5.0.6.0,3,neutral,4,1,7528,plus1,0,GREY.bmp,Judgeindirect,blacksquare2.gif,pic64.bmp,Mask.bmp,040517,15:10:07,5.0.6.0,3,whiteindirect,4,2,3117,plus1,0,w07.bmp,Judgeindirect,blacksquare2.gif,pic19.bmp,Mask.bmp,040517,15:10:07,5.0.6.0,3,neutral,4,3,2161,plus2,0,GREY.bmp,Judgeindirect,blacksquare2.gif,pic39.bmp,Mask.bmp,040517,15:10:07,5.0.6.0,3,whiteindirect,4,4,2579,plus2,0,b11.jpg,Judgeindirect,blacksquare2.gif,pic66.bmp,Mask.bmp,040517,15:10:07,5.0.6.0,3,blackindirect,4,5,3974,plus1,0,b08.bmp,Judgeindirect,blacksquare2.gif,pic46.bmp,Mask.bmp,040517,15:10:07,5.0.6.0,3,whiteindirect,4,6,3528,minus1,0,w05.bmp,Judgeindirect,blacksquare2.gif,pic68.bmp,Mask.bmp,040517,15:10:07,5.0.6.0,3,blackindirect,4,7,1820,minus1,0,b05.bmp,Judgeindirect,blacksquare2.gif,pic31.bmp,Mask.bmp,040517,15:10:07,5.0.6.0,3,neutral,4,8,1972,plus1,0,GREY.bmp,Judgeindirect,blacksquare2.gif,pic38.bmp,Mask.bmp,040517,15:10:07,5.0.6.0,3,blackindirect,4,9,1231,plus2,0,b11.bmp,Judgeindirect,blacksquare2.gif,pic49.bmp,Mask.bmp,040517,15:10:07,5.0.6.0,3,blackindirect,4,10,1863,plus1,0,b04.bmp,Judgeindirect,blacksquare2.gif,pic25.bmp,Mask.bmp,040517,15:10:07,5.0.6.0,3,whiteindirect,4,11,1413,minus2,0,w06.bmp,Judgeindirect,blacksquare2.gif,pic17.bmp,Mask.bmp,040517,15:10:07,5.0.6.0,3,blackindirect,4,12,4686,minus1,0,b03.bmp,Judgeindirect,blacksquare2.gif,pic43.bmp,Mask.bmp,040517,15:10:07,5.0.6.0,3,neutral,4,13,3476,minus1,0,GREY.bmp,Judgeindirect,blacksquare2.gif,pic57.bmp,Mask.bmp,040517,15:10:07,5.0.6.0,3,whiteindirect,4,14,1970,minus1,0,b10.jpg,Judgeindirect,blacksquare2.gif,pic63.bmp,Mask.bmp,040517,15:10:07,5.0.6.0,3,neutral,4,15,4092,minus1,0,GREY.bmp,Judgeindirect,blacksquare2.gif,pic10.bmp,Mask.bmp,040517,15:10:07,5.0.6.0,3,neutral,4,16,1770,plus2,0,GREY.bmp,Judgeindirect,blacksquare2.gif,pic67.bmp,Mask.bmp,040517,15:10:07,5.0.6.0,3,blackindirect,4,17,1556,plus1,0,b01.bmp,Judgeindirect,blacksquare2.gif,pic75.bmp,Mask.bmp,040517,15:10:07,5.0.6.0,3,blackindirect,4,18,2479,plus2,0,b12.bmp,Judgeindirect,blacksquare2.gif,pic20.bmp,Mask.bmp,040517,15:10:07,5.0.6.0,3,whiteindirect,4,19,2869,minus1,0,w09.bmp,Judgeindirect,blacksquare2.gif,pic52.bmp,Mask.bmp,040517,15:10:07,5.0.6.0,3,neutral,4,20,1699,plus1,0,GREY.bmp,Judgeindirect,blacksquare2.gif,pic44.bmp,Mask.bmp,040517,15:10:07,5.0.6.0,3,whiteindirect,4,21,3736,plus1,0,w04.bmp,Judgeindirect,blacksquare2.gif,pic60.bmp,Mask.bmp,040517,15:10:07,5.0.6.0,3,blackindirect,4,22,1396,minus2,0,b06.bmp,Judgeindirect,blacksquare2.gif,pic23.bmp,Mask.bmp,040517,15:10:07,5.0.6.0,3,whiteindirect,4,23,1637,minus1,0,w02.bmp,Judgeindirect,blacksquare2.gif,pic71.bmp,Mask.bmp,040517,15:10:07,5.0.6.0,3,neutral,4,24,1269,plus2,0,GREY.bmp,Judgeindirect,blacksquare2.gif,pic18.bmp,Mask.bmp,040517,15:10:07,5.0.6.0,3,blackindirect,4,25,4019,plus1,0,b10.bmp,Judgeindirect,blacksquare2.gif,pic5.bmp,Mask.bmp,040517,15:10:07,5.0.6.0,3,neutral,4,26,1403,plus1,0,GREY.bmp,Judgeindirect,blacksquare2.gif,pic69.bmp,Mask.bmp,040517,15:10:07,5.0.6.0,3,whiteindirect,4,27,1444,minus1,0,w03.bmp,Judgeindirect,blacksquare2.gif,pic74.bmp,Mask.bmp,040517,15:10:07,5.0.6.0,3,blackindirect,4,28,2595,minus1,0,b07.bmp,Judgeindirect,blacksquare2.gif,pic73.bmp,Mask.bmp,040517,15:10:07,5.0.6.0,3,whiteindirect,4,29,1957,plus2,0,b12.jpg,Judgeindirect,blacksquare2.gif,pic34.bmp,Mask.bmp,040517,15:10:07,5.0.6.0,3,whiteindirect,4,30,1831,plus1,0,w08.bmp,Judgeindirect,blacksquare2.gif,pic36.bmp,Mask.bmp,040517,15:10:07,5.0.6.0,3,blackindirect,4,31,1575,minus1,0,b09.bmp,Judgeindirect,blacksquare2.gif,pic33.bmp,Mask.bmp,040517,15:10:07,5.0.6.0,3,blackindirect,4,32,2177,plus1,0,b02.bmp,Judgeindirect,blacksquare2.gif,pic41.bmp,Mask.bmp,040517,15:10:07,5.0.6.0,3,blackindirect,4,33,4043,plus1,0,b07.bmp,Judgeindirect,blacksquare2.gif,pic42.bmp,Mask.bmp,040517,15:10:07,5.0.6.0,3,neutral,4,34,1427,minus2,0,GREY.bmp,Judgeindirect,blacksquare2.gif,pic22.bmp,Mask.bmp,040517,15:10:07,5.0.6.0,3,whiteindirect,4,35,1427,minus2,0,w01.bmp,Judgeindirect,blacksquare2.gif,pic56.bmp,Mask.bmp,040517,15:10:07,5.0.6.0,3,whiteindirect,4,36,2659,plus2,0,w04.bmp,Judgeindirect,blacksquare2.gif,pic9.bmp,Mask.bmp,040517,15:10:07,5.0.6.0,3,neutral,4,37,2002,plus1,0,GREY.bmp,Judgeindirect,blacksquare2.gif,pic13.bmp,Mask.bmp,040517,15:10:07,5.0.6.0,3,neutral,4,38,1307,plus1,0,GREY.bmp,Judgeindirect,blacksquare2.gif,pic24.bmp,Mask.bmp,040517,15:10:07,5.0.6.0,3,neutral,4,39,1600,minus1,0,GREY.bmp,Judgeindirect,blacksquare2.gif,pic70.bmp,Mask.bmp,040517,15:10:07,5.0.6.0,3,blackindirect,4,40,1696,minus1,0,b08.bmp,Judgeindirect,blacksquare2.gif,pic12.bmp,Mask.bmp,040517,15:10:07,5.0.6.0,3,blackindirect,4,41,2014,plus1,0,b04.bmp,Judgeindirect,blacksquare2.gif,pic53.bmp,Mask.bmp,040517,15:10:07,5.0.6.0,3,whiteindirect,4,42,4119,plus2,0,w06.bmp,Judgeindirect,blacksquare2.gif,pic11.bmp,Mask.bmp,040517,15:10:07,5.0.6.0,3,whiteindirect,4,43,1843,plus1,0,w02.bmp,Judgeindirect,blacksquare2.gif,pic61.bmp,Mask.bmp,040517,15:10:07,5.0.6.0,3,whiteindirect,4,44,1290,plus2,0,w03.bmp,Judgeindirect,blacksquare2.gif,pic1.bmp,Mask.bmp,040517,15:10:07,5.0.6.0,3,neutral,4,45,1608,minus1,0,GREY.bmp,Judgeindirect,blacksquare2.gif,pic32.bmp,Mask.bmp,040517,15:10:07,5.0.6.0,3,blackindirect,4,46,3689,plus2,0,b03.bmp,Judgeindirect,blacksquare2.gif,pic62.bmp,Mask.bmp,040517,15:10:07,5.0.6.0,3,blackindirect,4,47,1182,plus1,0,b10.bmp,Judgeindirect,blacksquare2.gif,pic58.bmp,Mask.bmp,040517,15:10:07,5.0.6.0,3,blackindirect,4,48,1504,plus1,0,b01.bmp,Judgeindirect,blacksquare2.gif,pic54.bmp,Mask.bmp,040517,15:10:07,5.0.6.0,3,blackindirect,4,49,1260,minus1,0,b05.bmp,Judgeindirect,blacksquare2.gif,pic21.bmp,Mask.bmp,040517,15:10:07,5.0.6.0,3,neutral,4,50,1995,plus2,0,GREY.bmp,Judgeindirect,blacksquare2.gif,pic6.bmp,Mask.bmp,040517,15:10:07,5.0.6.0,3,blackindirect,4,51,3541,plus2,0,b09.bmp,Judgeindirect,blacksquare2.gif,pic2.bmp,Mask.bmp,040517,15:10:07,5.0.6.0,3,neutral,4,52,4408,plus1,0,GREY.bmp,Judgeindirect,blacksquare2.gif,pic37.bmp,Mask.bmp,040517,15:10:07,5.0.6.0,3,blackindirect,4,53,1857,plus2,0,b06.bmp,Judgeindirect,blacksquare2.gif,pic3.bmp,Mask.bmp,040517,15:10:07,5.0.6.0,3,whiteindirect,4,54,4344,plus1,0,w05.bmp,Judgeindirect,blacksquare2.gif,pic45.bmp,Mask.bmp,040517,15:10:07,5.0.6.0,3,blackindirect,4,55,1388,minus1,0,b11.bmp,Judgeindirect,blacksquare2.gif,pic55.bmp,Mask.bmp,040517,15:10:07,5.0.6.0,3,whiteindirect,4,56,4469,plus1,0,w09.bmp,Judgeindirect,blacksquare2.gif,pic28.bmp,Mask.bmp,040517,15:10:07,5.0.6.0,3,neutral,4,57,1707,plus1,0,GREY.bmp,Judgeindirect,blacksquare2.gif,pic26.bmp,Mask.bmp,040517,15:10:07,5.0.6.0,3,whiteindirect,4,58,2888,plus2,0,w07.bmp,Judgeindirect,blacksquare2.gif,pic27.bmp,Mask.bmp,040517,15:10:07,5.0.6.0,3,neutral,4,59,1694,minus2,0,GREY.bmp,Judgeindirect,blacksquare2.gif,pic72.bmp,Mask.bmp,040517,15:10:07,5.0.6.0,3,whiteindirect,4,60,1619,minus2,0,b10.jpg,Judgeindirect,blacksquare2.gif,pic40.bmp,Mask.bmp,040517,15:10:07,5.0.6.0,3,neutral,4,61,1483,minus1,0,GREY.bmp,Judgeindirect,blacksquare2.gif,pic59.bmp,Mask.bmp,040517,15:10:07,5.0.6.0,3,blackindirect,4,62,841,plus1,0,b12.bmp,Judgeindirect,blacksquare2.gif,pic65.bmp,Mask.bmp,040517,15:10:07,5.0.6.0,3,neutral,4,63,1232,plus2,0,GREY.bmp,Judgeindirect,blacksquare2.gif,pic15.bmp,Mask.bmp,040517,15:10:07,5.0.6.0,3,neutral,4,64,1488,plus1,0,GREY.bmp,Judgeindirect,blacksquare2.gif,pic14.bmp,Mask.bmp,040517,15:10:07,5.0.6.0,3,blackindirect,4,65,2357,plus1,0,b02.bmp,Judgeindirect,blacksquare2.gif,pic47.bmp,Mask.bmp,040517,15:10:07,5.0.6.0,3,whiteindirect,4,66,4752,minus1,0,w08.bmp,Judgeindirect,blacksquare2.gif,pic7.bmp,Mask.bmp,040517,15:10:07,5.0.6.0,3,whiteindirect,4,67,1691,minus2,0,b12.jpg,Judgeindirect,blacksquare2.gif,pic8.bmp,Mask.bmp,040517,15:10:07,5.0.6.0,3,neutral,4,68,1672,plus2,0,GREY.bmp,Judgeindirect,blacksquare2.gif,pic4.bmp,Mask.bmp,040517,15:10:07,5.0.6.0,3,whiteindirect,4,69,1887,minus1,0,b11.jpg,Judgeindirect,blacksquare2.gif,pic29.bmp,Mask.bmp,040517,15:10:07,5.0.6.0,3,neutral,4,70,1404,plus1,0,GREY.bmp,Judgeindirect,blacksquare2.gif,pic51.bmp,Mask.bmp,040517,15:10:07,5.0.6.0,3,neutral,4,71,1317,minus1,0,GREY.bmp,Judgeindirect,blacksquare2.gif,pic48.bmp,Mask.bmp,040517,15:10:07,5.0.6.0,3,whiteindirect,4,72,1473,plus2,0,w01.bmp,Judgeindirect,blacksquare2.gif,pic50.bmp,Mask.bmp,040517,15:10:07,5.0.6.0,3,blackdirect,6,1,1981,plus1,0,b04.bmp,Judgedirect,blacksquare2.gif,pic115.bmp,Mask.bmp,040517,15:10:07,5.0.6.0,3,whitedirect,6,2,855,plus1,0,w06.bmp,Judgedirect,blacksquare2.gif,pic80.bmp,Mask.bmp,040517,15:10:07,5.0.6.0,3,blackdirect,6,3,766,plus1,0,b07.bmp,Judgedirect,blacksquare2.gif,pic110.bmp,Mask.bmp,040517,15:10:07,5.0.6.0,3,whitedirect,6,4,1208,minus1,0,b10.jpg,Judgedirect,blacksquare2.gif,pic100.bmp,Mask.bmp,040517,15:10:07,5.0.6.0,3,blackdirect,6,5,1880,plus1,0,b11.bmp,Judgedirect,blacksquare2.gif,pic113.bmp,Mask.bmp,040517,15:10:07,5.0.6.0,3,whitedirect,6,6,1894,plus1,0,b11.jpg,Judgedirect,blacksquare2.gif,pic78.bmp,Mask.bmp,040517,15:10:07,5.0.6.0,3,blackdirect,6,7,868,minus1,0,b09.bmp,Judgedirect,blacksquare2.gif,pic114.bmp,Mask.bmp,040517,15:10:07,5.0.6.0,3,whitedirect,6,8,1530,minus2,0,w09.bmp,Judgedirect,blacksquare2.gif,pic103.bmp,Mask.bmp,040517,15:10:07,5.0.6.0,3,blackdirect,6,9,1966,minus1,0,b08.bmp,Judgedirect,blacksquare2.gif,pic106.bmp,Mask.bmp,040517,15:10:07,5.0.6.0,3,whitedirect,6,10,720,minus1,0,b12.jpg,Judgedirect,blacksquare2.gif,pic104.bmp,Mask.bmp,040517,15:10:07,5.0.6.0,3,blackdirect,6,11,1020,minus1,0,b10.bmp,Judgedirect,blacksquare2.gif,pic117.bmp,Mask.bmp,040517,15:10:07,5.0.6.0,3,whitedirect,6,12,1805,plus1,0,w01.bmp,Judgedirect,blacksquare2.gif,pic82.bmp,Mask.bmp,040517,15:10:07,5.0.6.0,3,blackdirect,6,13,1693,minus1,0,b05.bmp,Judgedirect,blacksquare2.gif,pic118.bmp,Mask.bmp,040517,15:10:07,5.0.6.0,3,whitedirect,6,14,2179,plus1,0,w07.bmp,Judgedirect,blacksquare2.gif,pic81.bmp,Mask.bmp,040517,15:10:07,5.0.6.0,3,blackdirect,6,15,1397,plus1,0,b06.bmp,Judgedirect,blacksquare2.gif,pic116.bmp,Mask.bmp,040517,15:10:07,5.0.6.0,3,whitedirect,6,16,1430,minus1,0,w02.bmp,Judgedirect,blacksquare2.gif,pic79.bmp,Mask.bmp,040517,15:10:07,5.0.6.0,3,blackdirect,6,17,1222,plus1,0,b02.bmp,Judgedirect,blacksquare2.gif,pic102.bmp,Mask.bmp,040517,15:10:07,5.0.6.0,3,whitedirect,6,18,2063,plus2,0,w08.bmp,Judgedirect,blacksquare2.gif,pic111.bmp,Mask.bmp,040517,15:10:07,5.0.6.0,3,blackdirect,6,19,2213,plus1,0,b01.bmp,Judgedirect,blacksquare2.gif,pic105.bmp,Mask.bmp,040517,15:10:07,5.0.6.0,3,whitedirect,6,20,1758,plus2,0,w04.bmp,Judgedirect,blacksquare2.gif,pic108.bmp,Mask.bmp,040517,15:10:07,5.0.6.0,3,blackdirect,6,21,1113,plus2,0,b03.bmp,Judgedirect,blacksquare2.gif,pic112.bmp,Mask.bmp,040517,15:10:07,5.0.6.0,3,whitedirect,6,22,630,plus2,0,w05.bmp,Judgedirect,blacksquare2.gif,pic107.bmp,Mask.bmp,040517,15:10:07,5.0.6.0,3,blackdirect,6,23,1358,plus1,0,b12.bmp,Judgedirect,blacksquare2.gif,pic109.bmp,Mask.bmp,040517,15:10:07,5.0.6.0,3,whitedirect,6,24,1425,minus1,0,w03.bmp,Judgedirect,blacksquare2.gif,pic101.bmp,Mask.bmp,040517,15:10:07,5.0.6.0,3,gender,7,1,9103,1,1,0,demo,0,0,0,040517,15:10:07,5.0.6.0,3,age,7,1,9103,18,1,0,demo,0,0,0,040517,15:10:07,5.0.6.0,3,ethnicity,7,1,9103,"White, non-Hispanic or Latino",1,0,demo,0,0,0,040517,15:38:43,5.0.6.0,6,practice,1,1,3523,57,1,sample.bmp,orient1,blacksquare2.gif,pic76.bmp,Mask.bmp,040517,15:38:43,5.0.6.0,6,whiteindirect,4,1,5438,minus1,0,w07.bmp,Judgeindirect,blacksquare2.gif,pic3.bmp,Mask.bmp,040517,15:38:43,5.0.6.0,6,neutral,4,2,1901,plus2,0,GREY.bmp,Judgeindirect,blacksquare2.gif,pic49.bmp,Mask.bmp,040517,15:38:43,5.0.6.0,6,whiteindirect,4,3,1434,plus1,0,w06.bmp,Judgeindirect,blacksquare2.gif,pic48.bmp,Mask.bmp,040517,15:38:43,5.0.6.0,6,blackindirect,4,4,1546,minus1,0,b11.bmp,Judgeindirect,blacksquare2.gif,pic46.bmp,Mask.bmp,040517,15:38:43,5.0.6.0,6,blackindirect,4,5,2317,minus1,0,b05.bmp,Judgeindirect,blacksquare2.gif,pic31.bmp,Mask.bmp,040517,15:38:43,5.0.6.0,6,neutral,4,6,3201,minus2,0,GREY.bmp,Judgeindirect,blacksquare2.gif,pic63.bmp,Mask.bmp,040517,15:38:43,5.0.6.0,6,blackindirect,4,7,1146,plus2,0,b09.bmp,Judgeindirect,blacksquare2.gif,pic14.bmp,Mask.bmp,040517,15:38:43,5.0.6.0,6,blackindirect,4,8,1102,plus2,0,b07.bmp,Judgeindirect,blacksquare2.gif,pic52.bmp,Mask.bmp,040517,15:38:43,5.0.6.0,6,whiteindirect,4,9,890,plus2,0,b11.jpg,Judgeindirect,blacksquare2.gif,pic54.bmp,Mask.bmp,040517,15:38:43,5.0.6.0,6,neutral,4,10,976,plus2,0,GREY.bmp,Judgeindirect,blacksquare2.gif,pic23.bmp,Mask.bmp,040517,15:38:43,5.0.6.0,6,neutral,4,11,730,plus2,0,GREY.bmp,Judgeindirect,blacksquare2.gif,pic64.bmp,Mask.bmp,040517,15:38:43,5.0.6.0,6,blackindirect,4,12,1246,plus1,0,b04.bmp,Judgeindirect,blacksquare2.gif,pic30.bmp,Mask.bmp,040517,15:38:43,5.0.6.0,6,blackindirect,4,13,710,plus1,0,b02.bmp,Judgeindirect,blacksquare2.gif,pic10.bmp,Mask.bmp,040517,15:38:43,5.0.6.0,6,neutral,4,14,930,plus1,0,GREY.bmp,Judgeindirect,blacksquare2.gif,pic60.bmp,Mask.bmp,040517,15:38:43,5.0.6.0,6,whiteindirect,4,15,678,plus1,0,w04.bmp,Judgeindirect,blacksquare2.gif,pic71.bmp,Mask.bmp,040517,15:38:43,5.0.6.0,6,neutral,4,16,1164,plus1,0,GREY.bmp,Judgeindirect,blacksquare2.gif,pic56.bmp,Mask.bmp,040517,15:38:43,5.0.6.0,6,neutral,4,17,879,plus1,0,GREY.bmp,Judgeindirect,blacksquare2.gif,pic44.bmp,Mask.bmp,040517,15:38:43,5.0.6.0,6,neutral,4,18,2549,plus1,0,GREY.bmp,Judgeindirect,blacksquare2.gif,pic75.bmp,Mask.bmp,040517,15:38:43,5.0.6.0,6,whiteindirect,4,19,1416,minus1,0,w08.bmp,Judgeindirect,blacksquare2.gif,pic21.bmp,Mask.bmp,040517,15:38:43,5.0.6.0,6,neutral,4,20,952,minus1,0,GREY.bmp,Judgeindirect,blacksquare2.gif,pic5.bmp,Mask.bmp,040517,15:38:43,5.0.6.0,6,whiteindirect,4,21,499,minus1,0,w02.bmp,Judgeindirect,blacksquare2.gif,pic72.bmp,Mask.bmp,040517,15:38:43,5.0.6.0,6,blackindirect,4,22,1104,minus1,0,b01.bmp,Judgeindirect,blacksquare2.gif,pic39.bmp,Mask.bmp,040517,15:38:43,5.0.6.0,6,blackindirect,4,23,1348,plus1,0,b08.bmp,Judgeindirect,blacksquare2.gif,pic7.bmp,Mask.bmp,040517,15:38:43,5.0.6.0,6,neutral,4,24,519,plus1,0,GREY.bmp,Judgeindirect,blacksquare2.gif,pic74.bmp,Mask.bmp,040517,15:38:43,5.0.6.0,6,whiteindirect,4,25,411,plus1,0,b10.jpg,Judgeindirect,blacksquare2.gif,pic18.bmp,Mask.bmp,040517,15:38:43,5.0.6.0,6,neutral,4,26,500,plus1,0,GREY.bmp,Judgeindirect,blacksquare2.gif,pic26.bmp,Mask.bmp,040517,15:38:43,5.0.6.0,6,blackindirect,4,27,417,plus1,0,b03.bmp,Judgeindirect,blacksquare2.gif,pic53.bmp,Mask.bmp,040517,15:38:43,5.0.6.0,6,whiteindirect,4,28,1761,minus1,0,w09.bmp,Judgeindirect,blacksquare2.gif,pic25.bmp,Mask.bmp,040517,15:38:43,5.0.6.0,6,neutral,4,29,1260,plus1,0,GREY.bmp,Judgeindirect,blacksquare2.gif,pic27.bmp,Mask.bmp,040517,15:38:43,5.0.6.0,6,neutral,4,30,618,plus1,0,GREY.bmp,Judgeindirect,blacksquare2.gif,pic62.bmp,Mask.bmp,040517,15:38:43,5.0.6.0,6,neutral,4,31,570,plus1,0,GREY.bmp,Judgeindirect,blacksquare2.gif,pic57.bmp,Mask.bmp,040517,15:38:43,5.0.6.0,6,blackindirect,4,32,804,plus1,0,b12.bmp,Judgeindirect,blacksquare2.gif,pic47.bmp,Mask.bmp,040517,15:38:43,5.0.6.0,6,blackindirect,4,33,701,plus1,0,b10.bmp,Judgeindirect,blacksquare2.gif,pic19.bmp,Mask.bmp,040517,15:38:43,5.0.6.0,6,blackindirect,4,34,626,plus1,0,b06.bmp,Judgeindirect,blacksquare2.gif,pic15.bmp,Mask.bmp,040517,15:38:43,5.0.6.0,6,neutral,4,35,1386,plus1,0,GREY.bmp,Judgeindirect,blacksquare2.gif,pic73.bmp,Mask.bmp,040517,15:38:43,5.0.6.0,6,whiteindirect,4,36,3139,minus2,0,w01.bmp,Judgeindirect,blacksquare2.gif,pic12.bmp,Mask.bmp,040517,15:38:43,5.0.6.0,6,blackindirect,4,37,1783,minus1,0,b09.bmp,Judgeindirect,blacksquare2.gif,pic29.bmp,Mask.bmp,040517,15:38:43,5.0.6.0,6,blackindirect,4,38,1633,plus1,0,b03.bmp,Judgeindirect,blacksquare2.gif,pic67.bmp,Mask.bmp,040517,15:38:43,5.0.6.0,6,whiteindirect,4,39,1232,plus1,0,w03.bmp,Judgeindirect,blacksquare2.gif,pic17.bmp,Mask.bmp,040517,15:38:43,5.0.6.0,6,neutral,4,40,1559,plus2,0,GREY.bmp,Judgeindirect,blacksquare2.gif,pic70.bmp,Mask.bmp,040517,15:38:43,5.0.6.0,6,whiteindirect,4,41,922,plus1,0,b12.jpg,Judgeindirect,blacksquare2.gif,pic41.bmp,Mask.bmp,040517,15:38:43,5.0.6.0,6,whiteindirect,4,42,1174,minus2,0,w05.bmp,Judgeindirect,blacksquare2.gif,pic61.bmp,Mask.bmp,040517,15:38:43,5.0.6.0,6,whiteindirect,4,43,1288,minus2,0,w06.bmp,Judgeindirect,blacksquare2.gif,pic28.bmp,Mask.bmp,040517,15:38:43,5.0.6.0,6,neutral,4,44,1254,minus1,0,GREY.bmp,Judgeindirect,blacksquare2.gif,pic16.bmp,Mask.bmp,040517,15:38:43,5.0.6.0,6,blackindirect,4,45,829,minus1,0,b01.bmp,Judgeindirect,blacksquare2.gif,pic42.bmp,Mask.bmp,040517,15:38:43,5.0.6.0,6,neutral,4,46,1541,plus2,0,GREY.bmp,Judgeindirect,blacksquare2.gif,pic33.bmp,Mask.bmp,040517,15:38:43,5.0.6.0,6,whiteindirect,4,47,1600,minus1,0,w02.bmp,Judgeindirect,blacksquare2.gif,pic4.bmp,Mask.bmp,040517,15:38:43,5.0.6.0,6,neutral,4,48,945,minus1,0,GREY.bmp,Judgeindirect,blacksquare2.gif,pic50.bmp,Mask.bmp,040517,15:38:43,5.0.6.0,6,whiteindirect,4,49,1532,plus1,0,w08.bmp,Judgeindirect,blacksquare2.gif,pic58.bmp,Mask.bmp,040517,15:38:43,5.0.6.0,6,blackindirect,4,50,1072,plus1,0,b02.bmp,Judgeindirect,blacksquare2.gif,pic9.bmp,Mask.bmp,040517,15:38:43,5.0.6.0,6,blackindirect,4,51,1870,plus1,0,b06.bmp,Judgeindirect,blacksquare2.gif,pic11.bmp,Mask.bmp,040517,15:38:43,5.0.6.0,6,blackindirect,4,52,1764,minus1,0,b11.bmp,Judgeindirect,blacksquare2.gif,pic32.bmp,Mask.bmp,040517,15:38:43,5.0.6.0,6,whiteindirect,4,53,1503,minus2,0,w07.bmp,Judgeindirect,blacksquare2.gif,pic59.bmp,Mask.bmp,040517,15:38:43,5.0.6.0,6,neutral,4,54,1044,plus2,0,GREY.bmp,Judgeindirect,blacksquare2.gif,pic69.bmp,Mask.bmp,040517,15:38:43,5.0.6.0,6,neutral,4,55,1011,plus1,0,GREY.bmp,Judgeindirect,blacksquare2.gif,pic22.bmp,Mask.bmp,040517,15:38:43,5.0.6.0,6,whiteindirect,4,56,860,plus1,0,w05.bmp,Judgeindirect,blacksquare2.gif,pic13.bmp,Mask.bmp,040517,15:38:43,5.0.6.0,6,whiteindirect,4,57,643,plus1,0,b12.jpg,Judgeindirect,blacksquare2.gif,pic66.bmp,Mask.bmp,040517,15:38:43,5.0.6.0,6,whiteindirect,4,58,1290,plus1,0,w09.bmp,Judgeindirect,blacksquare2.gif,pic34.bmp,Mask.bmp,040517,15:38:43,5.0.6.0,6,whiteindirect,4,59,1568,minus1,0,w03.bmp,Judgeindirect,blacksquare2.gif,pic51.bmp,Mask.bmp,040517,15:38:43,5.0.6.0,6,blackindirect,4,60,809,plus1,0,b05.bmp,Judgeindirect,blacksquare2.gif,pic36.bmp,Mask.bmp,040517,15:38:43,5.0.6.0,6,blackindirect,4,61,1466,minus2,0,b10.bmp,Judgeindirect,blacksquare2.gif,pic38.bmp,Mask.bmp,040517,15:38:43,5.0.6.0,6,blackindirect,4,62,2192,plus2,0,b04.bmp,Judgeindirect,blacksquare2.gif,pic6.bmp,Mask.bmp,040517,15:38:43,5.0.6.0,6,neutral,4,63,410,plus2,0,GREY.bmp,Judgeindirect,blacksquare2.gif,pic37.bmp,Mask.bmp,040517,15:38:43,5.0.6.0,6,whiteindirect,4,64,1043,minus1,0,w01.bmp,Judgeindirect,blacksquare2.gif,pic20.bmp,Mask.bmp,040517,15:38:43,5.0.6.0,6,blackindirect,4,65,1050,plus1,0,b07.bmp,Judgeindirect,blacksquare2.gif,pic68.bmp,Mask.bmp,040517,15:38:43,5.0.6.0,6,whiteindirect,4,66,1041,minus1,0,w04.bmp,Judgeindirect,blacksquare2.gif,pic1.bmp,Mask.bmp,040517,15:38:43,5.0.6.0,6,neutral,4,67,1608,plus1,0,GREY.bmp,Judgeindirect,blacksquare2.gif,pic65.bmp,Mask.bmp,040517,15:38:43,5.0.6.0,6,whiteindirect,4,68,569,plus1,0,b10.jpg,Judgeindirect,blacksquare2.gif,pic8.bmp,Mask.bmp,040517,15:38:43,5.0.6.0,6,blackindirect,4,69,531,plus1,0,b08.bmp,Judgeindirect,blacksquare2.gif,pic55.bmp,Mask.bmp,040517,15:38:43,5.0.6.0,6,blackindirect,4,70,863,plus1,0,b12.bmp,Judgeindirect,blacksquare2.gif,pic24.bmp,Mask.bmp,040517,15:38:43,5.0.6.0,6,neutral,4,71,398,plus1,0,GREY.bmp,Judgeindirect,blacksquare2.gif,pic40.bmp,Mask.bmp,040517,15:38:43,5.0.6.0,6,whiteindirect,4,72,207,plus1,0,b11.jpg,Judgeindirect,blacksquare2.gif,pic2.bmp,Mask.bmp,040517,15:38:43,5.0.6.0,6,whitedirect,6,1,1753,plus1,0,b12.jpg,Judgedirect,blacksquare2.gif,pic101.bmp,Mask.bmp,040517,15:38:43,5.0.6.0,6,blackdirect,6,2,420,plus1,0,b09.bmp,Judgedirect,blacksquare2.gif,pic111.bmp,Mask.bmp,040517,15:38:43,5.0.6.0,6,whitedirect,6,3,1340,minus2,0,w02.bmp,Judgedirect,blacksquare2.gif,pic104.bmp,Mask.bmp,040517,15:38:43,5.0.6.0,6,blackdirect,6,4,824,plus1,0,b02.bmp,Judgedirect,blacksquare2.gif,pic112.bmp,Mask.bmp,040517,15:38:43,5.0.6.0,6,whitedirect,6,5,368,plus1,0,b10.jpg,Judgedirect,blacksquare2.gif,pic81.bmp,Mask.bmp,040517,15:38:43,5.0.6.0,6,blackdirect,6,6,994,minus1,0,b12.bmp,Judgedirect,blacksquare2.gif,pic108.bmp,Mask.bmp,040517,15:38:43,5.0.6.0,6,whitedirect,6,7,899,minus1,0,w09.bmp,Judgedirect,blacksquare2.gif,pic80.bmp,Mask.bmp,040517,15:38:43,5.0.6.0,6,blackdirect,6,8,904,plus1,0,b06.bmp,Judgedirect,blacksquare2.gif,pic102.bmp,Mask.bmp,040517,15:38:43,5.0.6.0,6,whitedirect,6,9,1285,plus2,0,w05.bmp,Judgedirect,blacksquare2.gif,pic107.bmp,Mask.bmp,040517,15:38:43,5.0.6.0,6,blackdirect,6,10,1130,plus2,0,b10.bmp,Judgedirect,blacksquare2.gif,pic79.bmp,Mask.bmp,040517,15:38:43,5.0.6.0,6,whitedirect,6,11,838,minus1,0,w03.bmp,Judgedirect,blacksquare2.gif,pic105.bmp,Mask.bmp,040517,15:38:43,5.0.6.0,6,blackdirect,6,12,590,plus1,0,b11.bmp,Judgedirect,blacksquare2.gif,pic110.bmp,Mask.bmp,040517,15:38:43,5.0.6.0,6,whitedirect,6,13,1231,plus1,0,w08.bmp,Judgedirect,blacksquare2.gif,pic117.bmp,Mask.bmp,040517,15:38:43,5.0.6.0,6,blackdirect,6,14,519,plus1,0,b08.bmp,Judgedirect,blacksquare2.gif,pic113.bmp,Mask.bmp,040517,15:38:43,5.0.6.0,6,whitedirect,6,15,483,plus1,0,w07.bmp,Judgedirect,blacksquare2.gif,pic116.bmp,Mask.bmp,040517,15:38:43,5.0.6.0,6,blackdirect,6,16,393,plus1,0,b05.bmp,Judgedirect,blacksquare2.gif,pic109.bmp,Mask.bmp,040517,15:38:43,5.0.6.0,6,whitedirect,6,17,378,plus1,0,w04.bmp,Judgedirect,blacksquare2.gif,pic118.bmp,Mask.bmp,040517,15:38:43,5.0.6.0,6,blackdirect,6,18,580,plus1,0,b01.bmp,Judgedirect,blacksquare2.gif,pic100.bmp,Mask.bmp,040517,15:38:43,5.0.6.0,6,whitedirect,6,19,390,plus1,0,b11.jpg,Judgedirect,blacksquare2.gif,pic82.bmp,Mask.bmp,040517,15:38:43,5.0.6.0,6,blackdirect,6,20,383,plus1,0,b03.bmp,Judgedirect,blacksquare2.gif,pic114.bmp,Mask.bmp,040517,15:38:43,5.0.6.0,6,whitedirect,6,21,1833,plus1,0,w01.bmp,Judgedirect,blacksquare2.gif,pic103.bmp,Mask.bmp,040517,15:38:43,5.0.6.0,6,blackdirect,6,22,448,plus1,0,b07.bmp,Judgedirect,blacksquare2.gif,pic106.bmp,Mask.bmp,040517,15:38:43,5.0.6.0,6,whitedirect,6,23,1311,minus1,0,w06.bmp,Judgedirect,blacksquare2.gif,pic78.bmp,Mask.bmp,040517,15:38:43,5.0.6.0,6,blackdirect,6,24,1036,plus1,0,b04.bmp,Judgedirect,blacksquare2.gif,pic115.bmp,Mask.bmp,040517,15:38:43,5.0.6.0,6,gender,7,1,6503,2,1,0,demo,0,0,0,040517,15:38:43,5.0.6.0,6,age,7,1,6503,19,1,0,demo,0,0,0,040517,15:38:43,5.0.6.0,6,ethnicity,7,1,6503,"White, non-Hispanic or Latino",1,0,demo,0,0,0,040617,12:47:31,5.0.6.0,9,practice,1,1,2788,57,1,sample.bmp,orient1,blacksquare2.gif,pic76.bmp,Mask.bmp,040617,12:47:31,5.0.6.0,9,blackdirect,4,1,8985,minus1,0,b01.bmp,Judgedirect,blacksquare2.gif,pic113.bmp,Mask.bmp,040617,12:47:31,5.0.6.0,9,whitedirect,4,2,2483,minus1,0,w03.bmp,Judgedirect,blacksquare2.gif,pic116.bmp,Mask.bmp,040617,12:47:31,5.0.6.0,9,blackdirect,4,3,1793,minus1,0,b05.bmp,Judgedirect,blacksquare2.gif,pic107.bmp,Mask.bmp,040617,12:47:31,5.0.6.0,9,whitedirect,4,4,3066,minus1,0,b11.jpg,Judgedirect,blacksquare2.gif,pic82.bmp,Mask.bmp,040617,12:47:31,5.0.6.0,9,blackdirect,4,5,1633,minus1,0,b04.bmp,Judgedirect,blacksquare2.gif,pic114.bmp,Mask.bmp,040617,12:47:31,5.0.6.0,9,whitedirect,4,6,4192,minus1,0,b10.jpg,Judgedirect,blacksquare2.gif,pic110.bmp,Mask.bmp,040617,12:47:31,5.0.6.0,9,blackdirect,4,7,1698,plus1,0,b06.bmp,Judgedirect,blacksquare2.gif,pic111.bmp,Mask.bmp,040617,12:47:31,5.0.6.0,9,whitedirect,4,8,1143,minus1,0,w04.bmp,Judgedirect,blacksquare2.gif,pic101.bmp,Mask.bmp,040617,12:47:31,5.0.6.0,9,blackdirect,4,9,1866,plus1,0,b02.bmp,Judgedirect,blacksquare2.gif,pic105.bmp,Mask.bmp,040617,12:47:31,5.0.6.0,9,whitedirect,4,10,4721,minus1,0,w09.bmp,Judgedirect,blacksquare2.gif,pic108.bmp,Mask.bmp,040617,12:47:31,5.0.6.0,9,blackdirect,4,11,1301,minus2,0,b09.bmp,Judgedirect,blacksquare2.gif,pic102.bmp,Mask.bmp,040617,12:47:31,5.0.6.0,9,whitedirect,4,12,1218,plus1,0,w07.bmp,Judgedirect,blacksquare2.gif,pic115.bmp,Mask.bmp,040617,12:47:31,5.0.6.0,9,blackdirect,4,13,826,plus1,0,b12.bmp,Judgedirect,blacksquare2.gif,pic104.bmp,Mask.bmp,040617,12:47:31,5.0.6.0,9,whitedirect,4,14,1274,minus2,0,w02.bmp,Judgedirect,blacksquare2.gif,pic100.bmp,Mask.bmp,040617,12:47:31,5.0.6.0,9,blackdirect,4,15,1344,minus1,0,b03.bmp,Judgedirect,blacksquare2.gif,pic79.bmp,Mask.bmp,040617,12:47:31,5.0.6.0,9,whitedirect,4,16,2588,minus1,0,b12.jpg,Judgedirect,blacksquare2.gif,pic103.bmp,Mask.bmp,040617,12:47:31,5.0.6.0,9,blackdirect,4,17,1181,plus1,0,b08.bmp,Judgedirect,blacksquare2.gif,pic109.bmp,Mask.bmp,040617,12:47:31,5.0.6.0,9,whitedirect,4,18,1751,plus1,0,w01.bmp,Judgedirect,blacksquare2.gif,pic112.bmp,Mask.bmp,040617,12:47:31,5.0.6.0,9,blackdirect,4,19,1074,plus1,0,b07.bmp,Judgedirect,blacksquare2.gif,pic81.bmp,Mask.bmp,040617,12:47:31,5.0.6.0,9,whitedirect,4,20,1016,minus2,0,w06.bmp,Judgedirect,blacksquare2.gif,pic118.bmp,Mask.bmp,040617,12:47:31,5.0.6.0,9,blackdirect,4,21,944,minus1,0,b10.bmp,Judgedirect,blacksquare2.gif,pic117.bmp,Mask.bmp,040617,12:47:31,5.0.6.0,9,whitedirect,4,22,828,minus1,0,w08.bmp,Judgedirect,blacksquare2.gif,pic78.bmp,Mask.bmp,040617,12:47:31,5.0.6.0,9,blackdirect,4,23,740,plus1,0,b11.bmp,Judgedirect,blacksquare2.gif,pic106.bmp,Mask.bmp,040617,12:47:31,5.0.6.0,9,whitedirect,4,24,1287,minus1,0,w05.bmp,Judgedirect,blacksquare2.gif,pic80.bmp,Mask.bmp,040617,12:47:31,5.0.6.0,9,blackindirect,6,1,2156,plus1,0,b11.bmp,Judgeindirect,blacksquare2.gif,pic66.bmp,Mask.bmp,040617,12:47:31,5.0.6.0,9,whiteindirect,6,2,991,plus1,0,w09.bmp,Judgeindirect,blacksquare2.gif,pic57.bmp,Mask.bmp,040617,12:47:31,5.0.6.0,9,blackindirect,6,3,928,plus1,0,b03.bmp,Judgeindirect,blacksquare2.gif,pic46.bmp,Mask.bmp,040617,12:47:31,5.0.6.0,9,neutral,6,4,1068,minus1,0,GREY.bmp,Judgeindirect,blacksquare2.gif,pic43.bmp,Mask.bmp,040617,12:47:31,5.0.6.0,9,neutral,6,5,1594,plus1,0,GREY.bmp,Judgeindirect,blacksquare2.gif,pic5.bmp,Mask.bmp,040617,12:47:31,5.0.6.0,9,whiteindirect,6,6,1412,minus2,0,w07.bmp,Judgeindirect,blacksquare2.gif,pic27.bmp,Mask.bmp,040617,12:47:31,5.0.6.0,9,blackindirect,6,7,1413,plus2,0,b04.bmp,Judgeindirect,blacksquare2.gif,pic56.bmp,Mask.bmp,040617,12:47:31,5.0.6.0,9,whiteindirect,6,8,813,plus2,0,w06.bmp,Judgeindirect,blacksquare2.gif,pic50.bmp,Mask.bmp,040617,12:47:31,5.0.6.0,9,blackindirect,6,9,1014,plus1,0,b07.bmp,Judgeindirect,blacksquare2.gif,pic21.bmp,Mask.bmp,040617,12:47:31,5.0.6.0,9,blackindirect,6,10,1335,minus1,0,b05.bmp,Judgeindirect,blacksquare2.gif,pic40.bmp,Mask.bmp,040617,12:47:31,5.0.6.0,9,whiteindirect,6,11,738,minus1,0,w03.bmp,Judgeindirect,blacksquare2.gif,pic59.bmp,Mask.bmp,040617,12:47:31,5.0.6.0,9,whiteindirect,6,12,1286,plus1,0,w04.bmp,Judgeindirect,blacksquare2.gif,pic36.bmp,Mask.bmp,040617,12:47:31,5.0.6.0,9,blackindirect,6,13,1699,plus2,0,b08.bmp,Judgeindirect,blacksquare2.gif,pic63.bmp,Mask.bmp,040617,12:47:31,5.0.6.0,9,blackindirect,6,14,880,plus2,0,b12.bmp,Judgeindirect,blacksquare2.gif,pic64.bmp,Mask.bmp,040617,12:47:31,5.0.6.0,9,blackindirect,6,15,822,minus1,0,b09.bmp,Judgeindirect,blacksquare2.gif,pic70.bmp,Mask.bmp,040617,12:47:31,5.0.6.0,9,blackindirect,6,16,1262,minus1,0,b01.bmp,Judgeindirect,blacksquare2.gif,pic19.bmp,Mask.bmp,040617,12:47:31,5.0.6.0,9,whiteindirect,6,17,893,plus1,0,b10.jpg,Judgeindirect,blacksquare2.gif,pic1.bmp,Mask.bmp,040617,12:47:31,5.0.6.0,9,neutral,6,18,626,plus1,0,GREY.bmp,Judgeindirect,blacksquare2.gif,pic16.bmp,Mask.bmp,040617,12:47:31,5.0.6.0,9,blackindirect,6,19,1162,plus2,0,b06.bmp,Judgeindirect,blacksquare2.gif,pic69.bmp,Mask.bmp,040617,12:47:31,5.0.6.0,9,whiteindirect,6,20,1533,plus1,0,b11.jpg,Judgeindirect,blacksquare2.gif,pic61.bmp,Mask.bmp,040617,12:47:31,5.0.6.0,9,whiteindirect,6,21,1353,minus2,0,w05.bmp,Judgeindirect,blacksquare2.gif,pic24.bmp,Mask.bmp,040617,12:47:31,5.0.6.0,9,whiteindirect,6,22,1411,minus1,0,w08.bmp,Judgeindirect,blacksquare2.gif,pic55.bmp,Mask.bmp,040617,12:47:31,5.0.6.0,9,blackindirect,6,23,1260,plus1,0,b10.bmp,Judgeindirect,blacksquare2.gif,pic51.bmp,Mask.bmp,040617,12:47:31,5.0.6.0,9,blackindirect,6,24,1251,minus1,0,b02.bmp,Judgeindirect,blacksquare2.gif,pic8.bmp,Mask.bmp,040617,12:47:31,5.0.6.0,9,whiteindirect,6,25,946,plus1,0,b12.jpg,Judgeindirect,blacksquare2.gif,pic3.bmp,Mask.bmp,040617,12:47:31,5.0.6.0,9,neutral,6,26,2613,plus1,0,GREY.bmp,Judgeindirect,blacksquare2.gif,pic53.bmp,Mask.bmp,040617,12:47:31,5.0.6.0,9,whiteindirect,6,27,2334,plus1,0,w01.bmp,Judgeindirect,blacksquare2.gif,pic22.bmp,Mask.bmp,040617,12:47:31,5.0.6.0,9,blackindirect,6,28,642,plus1,0,b06.bmp,Judgeindirect,blacksquare2.gif,pic32.bmp,Mask.bmp,040617,12:47:31,5.0.6.0,9,blackindirect,6,29,1425,minus1,0,b08.bmp,Judgeindirect,blacksquare2.gif,pic28.bmp,Mask.bmp,040617,12:47:31,5.0.6.0,9,neutral,6,30,1121,plus2,0,GREY.bmp,Judgeindirect,blacksquare2.gif,pic20.bmp,Mask.bmp,040617,12:47:31,5.0.6.0,9,blackindirect,6,31,1622,minus2,0,b05.bmp,Judgeindirect,blacksquare2.gif,pic29.bmp,Mask.bmp,040617,12:47:31,5.0.6.0,9,blackindirect,6,32,781,minus2,0,b07.bmp,Judgeindirect,blacksquare2.gif,pic4.bmp,Mask.bmp,040617,12:47:31,5.0.6.0,9,neutral,6,33,847,minus1,0,GREY.bmp,Judgeindirect,blacksquare2.gif,pic13.bmp,Mask.bmp,040617,12:47:31,5.0.6.0,9,blackindirect,6,34,830,plus1,0,b12.bmp,Judgeindirect,blacksquare2.gif,pic67.bmp,Mask.bmp,040617,12:47:31,5.0.6.0,9,whiteindirect,6,35,1118,minus1,0,w02.bmp,Judgeindirect,blacksquare2.gif,pic7.bmp,Mask.bmp,040617,12:47:31,5.0.6.0,9,neutral,6,36,1434,plus2,0,GREY.bmp,Judgeindirect,blacksquare2.gif,pic62.bmp,Mask.bmp,040617,12:47:31,5.0.6.0,9,whiteindirect,6,37,922,plus1,0,w05.bmp,Judgeindirect,blacksquare2.gif,pic73.bmp,Mask.bmp,040617,12:47:31,5.0.6.0,9,neutral,6,38,830,plus1,0,GREY.bmp,Judgeindirect,blacksquare2.gif,pic54.bmp,Mask.bmp,040617,12:47:31,5.0.6.0,9,blackindirect,6,39,590,plus1,0,b03.bmp,Judgeindirect,blacksquare2.gif,pic60.bmp,Mask.bmp,040617,12:47:31,5.0.6.0,9,neutral,6,40,1288,plus1,0,GREY.bmp,Judgeindirect,blacksquare2.gif,pic75.bmp,Mask.bmp,040617,12:47:31,5.0.6.0,9,blackindirect,6,41,1701,minus1,0,b11.bmp,Judgeindirect,blacksquare2.gif,pic2.bmp,Mask.bmp,040617,12:47:31,5.0.6.0,9,neutral,6,42,530,minus1,0,GREY.bmp,Judgeindirect,blacksquare2.gif,pic71.bmp,Mask.bmp,040617,12:47:31,5.0.6.0,9,blackindirect,6,43,486,minus1,0,b09.bmp,Judgeindirect,blacksquare2.gif,pic11.bmp,Mask.bmp,040617,12:47:31,5.0.6.0,9,whiteindirect,6,44,995,plus1,0,w01.bmp,Judgeindirect,blacksquare2.gif,pic14.bmp,Mask.bmp,040617,12:47:31,5.0.6.0,9,neutral,6,45,956,plus1,0,GREY.bmp,Judgeindirect,blacksquare2.gif,pic10.bmp,Mask.bmp,040617,12:47:31,5.0.6.0,9,whiteindirect,6,46,1183,plus2,0,b11.jpg,Judgeindirect,blacksquare2.gif,pic45.bmp,Mask.bmp,040617,12:47:31,5.0.6.0,9,whiteindirect,6,47,601,minus1,0,b12.jpg,Judgeindirect,blacksquare2.gif,pic30.bmp,Mask.bmp,040617,12:47:31,5.0.6.0,9,whiteindirect,6,48,1553,minus2,0,w07.bmp,Judgeindirect,blacksquare2.gif,pic33.bmp,Mask.bmp,040617,12:47:31,5.0.6.0,9,blackindirect,6,49,620,minus1,0,b10.bmp,Judgeindirect,blacksquare2.gif,pic31.bmp,Mask.bmp,040617,12:47:31,5.0.6.0,9,neutral,6,50,892,plus1,0,GREY.bmp,Judgeindirect,blacksquare2.gif,pic47.bmp,Mask.bmp,040617,12:47:31,5.0.6.0,9,whiteindirect,6,51,954,plus2,0,w02.bmp,Judgeindirect,blacksquare2.gif,pic58.bmp,Mask.bmp,040617,12:47:31,5.0.6.0,9,blackindirect,6,52,804,plus1,0,b02.bmp,Judgeindirect,blacksquare2.gif,pic49.bmp,Mask.bmp,040617,12:47:31,5.0.6.0,9,neutral,6,53,669,minus1,0,GREY.bmp,Judgeindirect,blacksquare2.gif,pic65.bmp,Mask.bmp,040617,12:47:31,5.0.6.0,9,blackindirect,6,54,739,minus2,0,b04.bmp,Judgeindirect,blacksquare2.gif,pic18.bmp,Mask.bmp,040617,12:47:31,5.0.6.0,9,neutral,6,55,1935,minus2,0,GREY.bmp,Judgeindirect,blacksquare2.gif,pic17.bmp,Mask.bmp,040617,12:47:31,5.0.6.0,9,neutral,6,56,1594,plus1,0,GREY.bmp,Judgeindirect,blacksquare2.gif,pic26.bmp,Mask.bmp,040617,12:47:31,5.0.6.0,9,whiteindirect,6,57,1372,minus2,0,w08.bmp,Judgeindirect,blacksquare2.gif,pic9.bmp,Mask.bmp,040617,12:47:31,5.0.6.0,9,neutral,6,58,870,minus2,0,GREY.bmp,Judgeindirect,blacksquare2.gif,pic39.bmp,Mask.bmp,040617,12:47:31,5.0.6.0,9,whiteindirect,6,59,1540,plus2,0,b10.jpg,Judgeindirect,blacksquare2.gif,pic44.bmp,Mask.bmp,040617,12:47:31,5.0.6.0,9,whiteindirect,6,60,847,minus1,0,w03.bmp,Judgeindirect,blacksquare2.gif,pic23.bmp,Mask.bmp,040617,12:47:31,5.0.6.0,9,neutral,6,61,2391,minus2,0,GREY.bmp,Judgeindirect,blacksquare2.gif,pic74.bmp,Mask.bmp,040617,12:47:31,5.0.6.0,9,blackindirect,6,62,1200,minus1,0,b01.bmp,Judgeindirect,blacksquare2.gif,pic68.bmp,Mask.bmp,040617,12:47:31,5.0.6.0,9,whiteindirect,6,63,793,minus1,0,w04.bmp,Judgeindirect,blacksquare2.gif,pic38.bmp,Mask.bmp,040617,12:47:31,5.0.6.0,9,neutral,6,64,802,plus1,0,GREY.bmp,Judgeindirect,blacksquare2.gif,pic15.bmp,Mask.bmp,040617,12:47:31,5.0.6.0,9,neutral,6,65,547,plus1,0,GREY.bmp,Judgeindirect,blacksquare2.gif,pic41.bmp,Mask.bmp,040617,12:47:31,5.0.6.0,9,neutral,6,66,951,plus2,0,GREY.bmp,Judgeindirect,blacksquare2.gif,pic48.bmp,Mask.bmp,040617,12:47:31,5.0.6.0,9,whiteindirect,6,67,665,plus1,0,w09.bmp,Judgeindirect,blacksquare2.gif,pic6.bmp,Mask.bmp,040617,12:47:31,5.0.6.0,9,whiteindirect,6,68,879,minus1,0,w06.bmp,Judgeindirect,blacksquare2.gif,pic12.bmp,Mask.bmp,040617,12:47:31,5.0.6.0,9,neutral,6,69,1949,minus1,0,GREY.bmp,Judgeindirect,blacksquare2.gif,pic25.bmp,Mask.bmp,040617,12:47:31,5.0.6.0,9,neutral,6,70,1240,plus1,0,GREY.bmp,Judgeindirect,blacksquare2.gif,pic37.bmp,Mask.bmp,040617,12:47:31,5.0.6.0,9,neutral,6,71,960,plus2,0,GREY.bmp,Judgeindirect,blacksquare2.gif,pic52.bmp,Mask.bmp,040617,12:47:31,5.0.6.0,9,neutral,6,72,1274,plus1,0,GREY.bmp,Judgeindirect,blacksquare2.gif,pic72.bmp,Mask.bmp,040617,12:47:31,5.0.6.0,9,gender,7,1,12108,1,1,0,demo,0,0,0,040617,12:47:31,5.0.6.0,9,age,7,1,12108,19,1,0,demo,0,0,0,040617,12:47:31,5.0.6.0,9,ethnicity,7,1,12108,"White, non-Hispanic or Latino",1,0,demo,0,0,0,041117,13:06:22,5.0.6.0,13,practice,1,1,3465,57,1,sample.bmp,orient1,blacksquare2.gif,pic76.bmp,Mask.bmp,041117,13:06:22,5.0.6.0,13,whitedirect,4,1,6140,minus1,0,w03.bmp,Judgedirect,blacksquare2.gif,pic82.bmp,Mask.bmp,041117,13:06:22,5.0.6.0,13,blackdirect,4,2,5807,minus1,0,b11.bmp,Judgedirect,blacksquare2.gif,pic79.bmp,Mask.bmp,041117,13:06:22,5.0.6.0,13,whitedirect,4,3,1889,minus1,0,b11.jpg,Judgedirect,blacksquare2.gif,pic102.bmp,Mask.bmp,041117,13:06:22,5.0.6.0,13,blackdirect,4,4,2334,minus1,0,b07.bmp,Judgedirect,blacksquare2.gif,pic100.bmp,Mask.bmp,041117,13:06:22,5.0.6.0,13,whitedirect,4,5,1042,plus1,0,w05.bmp,Judgedirect,blacksquare2.gif,pic78.bmp,Mask.bmp,041117,13:06:22,5.0.6.0,13,blackdirect,4,6,1281,minus1,0,b08.bmp,Judgedirect,blacksquare2.gif,pic80.bmp,Mask.bmp,041117,13:06:22,5.0.6.0,13,whitedirect,4,7,1127,minus1,0,b10.jpg,Judgedirect,blacksquare2.gif,pic114.bmp,Mask.bmp,041117,13:06:22,5.0.6.0,13,blackdirect,4,8,1587,minus1,0,b03.bmp,Judgedirect,blacksquare2.gif,pic101.bmp,Mask.bmp,041117,13:06:22,5.0.6.0,13,whitedirect,4,9,2084,plus1,0,w08.bmp,Judgedirect,blacksquare2.gif,pic113.bmp,Mask.bmp,041117,13:06:22,5.0.6.0,13,blackdirect,4,10,745,minus1,0,b04.bmp,Judgedirect,blacksquare2.gif,pic117.bmp,Mask.bmp,041117,13:06:22,5.0.6.0,13,whitedirect,4,11,6149,minus1,0,w07.bmp,Judgedirect,blacksquare2.gif,pic115.bmp,Mask.bmp,041117,13:06:22,5.0.6.0,13,blackdirect,4,12,2808,minus1,0,b10.bmp,Judgedirect,blacksquare2.gif,pic105.bmp,Mask.bmp,041117,13:06:22,5.0.6.0,13,whitedirect,4,13,2561,minus1,0,b12.jpg,Judgedirect,blacksquare2.gif,pic108.bmp,Mask.bmp,041117,13:06:22,5.0.6.0,13,blackdirect,4,14,284,minus1,0,b05.bmp,Judgedirect,blacksquare2.gif,pic81.bmp,Mask.bmp,041117,13:06:22,5.0.6.0,13,whitedirect,4,15,1201,plus2,0,w06.bmp,Judgedirect,blacksquare2.gif,pic103.bmp,Mask.bmp,041117,13:06:22,5.0.6.0,13,blackdirect,4,16,2146,minus1,0,b02.bmp,Judgedirect,blacksquare2.gif,pic112.bmp,Mask.bmp,041117,13:06:22,5.0.6.0,13,whitedirect,4,17,1253,plus1,0,w09.bmp,Judgedirect,blacksquare2.gif,pic110.bmp,Mask.bmp,041117,13:06:22,5.0.6.0,13,blackdirect,4,18,2004,minus1,0,b12.bmp,Judgedirect,blacksquare2.gif,pic109.bmp,Mask.bmp,041117,13:06:22,5.0.6.0,13,whitedirect,4,19,1109,plus1,0,w01.bmp,Judgedirect,blacksquare2.gif,pic118.bmp,Mask.bmp,041117,13:06:22,5.0.6.0,13,blackdirect,4,20,3065,minus1,0,b09.bmp,Judgedirect,blacksquare2.gif,pic111.bmp,Mask.bmp,041117,13:06:22,5.0.6.0,13,whitedirect,4,21,1480,plus1,0,w02.bmp,Judgedirect,blacksquare2.gif,pic104.bmp,Mask.bmp,041117,13:06:22,5.0.6.0,13,blackdirect,4,22,1245,plus1,0,b06.bmp,Judgedirect,blacksquare2.gif,pic106.bmp,Mask.bmp,041117,13:06:22,5.0.6.0,13,whitedirect,4,23,565,plus1,0,w04.bmp,Judgedirect,blacksquare2.gif,pic116.bmp,Mask.bmp,041117,13:06:22,5.0.6.0,13,blackdirect,4,24,1071,minus1,0,b01.bmp,Judgedirect,blacksquare2.gif,pic107.bmp,Mask.bmp,041117,13:06:22,5.0.6.0,13,blackindirect,6,1,4970,plus1,0,b03.bmp,Judgeindirect,blacksquare2.gif,pic74.bmp,Mask.bmp,041117,13:06:22,5.0.6.0,13,neutral,6,2,3117,minus1,0,GREY.bmp,Judgeindirect,blacksquare2.gif,pic8.bmp,Mask.bmp,041117,13:06:22,5.0.6.0,13,whiteindirect,6,3,3441,minus1,0,w01.bmp,Judgeindirect,blacksquare2.gif,pic32.bmp,Mask.bmp,041117,13:06:22,5.0.6.0,13,blackindirect,6,4,2368,plus2,0,b05.bmp,Judgeindirect,blacksquare2.gif,pic52.bmp,Mask.bmp,041117,13:06:22,5.0.6.0,13,whiteindirect,6,5,923,plus2,0,w02.bmp,Judgeindirect,blacksquare2.gif,pic69.bmp,Mask.bmp,041117,13:06:22,5.0.6.0,13,whiteindirect,6,6,967,plus1,0,w05.bmp,Judgeindirect,blacksquare2.gif,pic28.bmp,Mask.bmp,041117,13:06:22,5.0.6.0,13,whiteindirect,6,7,1273,plus1,0,b12.jpg,Judgeindirect,blacksquare2.gif,pic46.bmp,Mask.bmp,041117,13:06:22,5.0.6.0,13,whiteindirect,6,8,959,minus1,0,w06.bmp,Judgeindirect,blacksquare2.gif,pic51.bmp,Mask.bmp,041117,13:06:22,5.0.6.0,13,whiteindirect,6,9,730,plus1,0,w07.bmp,Judgeindirect,blacksquare2.gif,pic4.bmp,Mask.bmp,041117,13:06:22,5.0.6.0,13,blackindirect,6,10,718,plus1,0,b01.bmp,Judgeindirect,blacksquare2.gif,pic2.bmp,Mask.bmp,041117,13:06:22,5.0.6.0,13,blackindirect,6,11,1058,plus1,0,b02.bmp,Judgeindirect,blacksquare2.gif,pic38.bmp,Mask.bmp,041117,13:06:22,5.0.6.0,13,whiteindirect,6,12,625,plus1,0,b10.jpg,Judgeindirect,blacksquare2.gif,pic64.bmp,Mask.bmp,041117,13:06:22,5.0.6.0,13,neutral,6,13,1105,plus2,0,GREY.bmp,Judgeindirect,blacksquare2.gif,pic41.bmp,Mask.bmp,041117,13:06:22,5.0.6.0,13,neutral,6,14,2157,minus1,0,GREY.bmp,Judgeindirect,blacksquare2.gif,pic44.bmp,Mask.bmp,041117,13:06:22,5.0.6.0,13,whiteindirect,6,15,1624,plus1,0,b11.jpg,Judgeindirect,blacksquare2.gif,pic49.bmp,Mask.bmp,041117,13:06:22,5.0.6.0,13,whiteindirect,6,16,1065,plus2,0,w09.bmp,Judgeindirect,blacksquare2.gif,pic31.bmp,Mask.bmp,041117,13:06:22,5.0.6.0,13,whiteindirect,6,17,919,plus1,0,w08.bmp,Judgeindirect,blacksquare2.gif,pic73.bmp,Mask.bmp,041117,13:06:22,5.0.6.0,13,whiteindirect,6,18,819,plus1,0,w03.bmp,Judgeindirect,blacksquare2.gif,pic26.bmp,Mask.bmp,041117,13:06:22,5.0.6.0,13,blackindirect,6,19,731,plus1,0,b12.bmp,Judgeindirect,blacksquare2.gif,pic33.bmp,Mask.bmp,041117,13:06:22,5.0.6.0,13,whiteindirect,6,20,743,plus1,0,w04.bmp,Judgeindirect,blacksquare2.gif,pic40.bmp,Mask.bmp,041117,13:06:22,5.0.6.0,13,blackindirect,6,21,810,plus1,0,b04.bmp,Judgeindirect,blacksquare2.gif,pic42.bmp,Mask.bmp,041117,13:06:22,5.0.6.0,13,whiteindirect,6,22,803,plus1,0,w04.bmp,Judgeindirect,blacksquare2.gif,pic53.bmp,Mask.bmp,041117,13:06:22,5.0.6.0,13,blackindirect,6,23,1852,plus1,0,b07.bmp,Judgeindirect,blacksquare2.gif,pic70.bmp,Mask.bmp,041117,13:06:22,5.0.6.0,13,blackindirect,6,24,939,plus1,0,b09.bmp,Judgeindirect,blacksquare2.gif,pic50.bmp,Mask.bmp,041117,13:06:22,5.0.6.0,13,blackindirect,6,25,1142,plus2,0,b10.bmp,Judgeindirect,blacksquare2.gif,pic13.bmp,Mask.bmp,041117,13:06:22,5.0.6.0,13,neutral,6,26,689,plus2,0,GREY.bmp,Judgeindirect,blacksquare2.gif,pic36.bmp,Mask.bmp,041117,13:06:22,5.0.6.0,13,whiteindirect,6,27,967,plus1,0,w01.bmp,Judgeindirect,blacksquare2.gif,pic37.bmp,Mask.bmp,041117,13:06:22,5.0.6.0,13,blackindirect,6,28,673,plus1,0,b06.bmp,Judgeindirect,blacksquare2.gif,pic16.bmp,Mask.bmp,041117,13:06:22,5.0.6.0,13,neutral,6,29,607,plus1,0,GREY.bmp,Judgeindirect,blacksquare2.gif,pic5.bmp,Mask.bmp,041117,13:06:22,5.0.6.0,13,whiteindirect,6,30,480,plus1,0,w02.bmp,Judgeindirect,blacksquare2.gif,pic66.bmp,Mask.bmp,041117,13:06:22,5.0.6.0,13,whiteindirect,6,31,870,plus1,0,w03.bmp,Judgeindirect,blacksquare2.gif,pic59.bmp,Mask.bmp,041117,13:06:22,5.0.6.0,13,blackindirect,6,32,452,plus1,0,b11.bmp,Judgeindirect,blacksquare2.gif,pic15.bmp,Mask.bmp,041117,13:06:22,5.0.6.0,13,neutral,6,33,1435,plus1,0,GREY.bmp,Judgeindirect,blacksquare2.gif,pic11.bmp,Mask.bmp,041117,13:06:22,5.0.6.0,13,whiteindirect,6,34,970,plus1,0,w05.bmp,Judgeindirect,blacksquare2.gif,pic27.bmp,Mask.bmp,041117,13:06:22,5.0.6.0,13,blackindirect,6,35,636,plus1,0,b08.bmp,Judgeindirect,blacksquare2.gif,pic71.bmp,Mask.bmp,041117,13:06:22,5.0.6.0,13,neutral,6,36,803,plus1,0,GREY.bmp,Judgeindirect,blacksquare2.gif,pic48.bmp,Mask.bmp,041117,13:06:22,5.0.6.0,13,blackindirect,6,37,1252,plus2,0,b07.bmp,Judgeindirect,blacksquare2.gif,pic10.bmp,Mask.bmp,041117,13:06:22,5.0.6.0,13,whiteindirect,6,38,683,plus1,0,b12.jpg,Judgeindirect,blacksquare2.gif,pic72.bmp,Mask.bmp,041117,13:06:22,5.0.6.0,13,neutral,6,39,784,plus2,0,GREY.bmp,Judgeindirect,blacksquare2.gif,pic23.bmp,Mask.bmp,041117,13:06:22,5.0.6.0,13,neutral,6,40,642,plus1,0,GREY.bmp,Judgeindirect,blacksquare2.gif,pic20.bmp,Mask.bmp,041117,13:06:22,5.0.6.0,13,whiteindirect,6,41,745,plus2,0,w08.bmp,Judgeindirect,blacksquare2.gif,pic7.bmp,Mask.bmp,041117,13:06:22,5.0.6.0,13,neutral,6,42,405,plus2,0,GREY.bmp,Judgeindirect,blacksquare2.gif,pic47.bmp,Mask.bmp,041117,13:06:22,5.0.6.0,13,neutral,6,43,1117,plus1,0,GREY.bmp,Judgeindirect,blacksquare2.gif,pic22.bmp,Mask.bmp,041117,13:06:22,5.0.6.0,13,neutral,6,44,345,minus1,0,GREY.bmp,Judgeindirect,blacksquare2.gif,pic55.bmp,Mask.bmp,041117,13:06:22,5.0.6.0,13,blackindirect,6,45,613,plus1,0,b06.bmp,Judgeindirect,blacksquare2.gif,pic54.bmp,Mask.bmp,041117,13:06:22,5.0.6.0,13,blackindirect,6,46,917,plus1,0,b09.bmp,Judgeindirect,blacksquare2.gif,pic56.bmp,Mask.bmp,041117,13:06:22,5.0.6.0,13,blackindirect,6,47,450,plus2,0,b08.bmp,Judgeindirect,blacksquare2.gif,pic6.bmp,Mask.bmp,041117,13:06:22,5.0.6.0,13,neutral,6,48,464,plus1,0,GREY.bmp,Judgeindirect,blacksquare2.gif,pic75.bmp,Mask.bmp,041117,13:06:22,5.0.6.0,13,neutral,6,49,583,minus1,0,GREY.bmp,Judgeindirect,blacksquare2.gif,pic61.bmp,Mask.bmp,041117,13:06:22,5.0.6.0,13,blackindirect,6,50,360,minus1,0,b03.bmp,Judgeindirect,blacksquare2.gif,pic1.bmp,Mask.bmp,041117,13:06:22,5.0.6.0,13,blackindirect,6,51,579,plus1,0,b12.bmp,Judgeindirect,blacksquare2.gif,pic43.bmp,Mask.bmp,041117,13:06:22,5.0.6.0,13,whiteindirect,6,52,501,plus2,0,w07.bmp,Judgeindirect,blacksquare2.gif,pic60.bmp,Mask.bmp,041117,13:06:22,5.0.6.0,13,neutral,6,53,474,plus1,0,GREY.bmp,Judgeindirect,blacksquare2.gif,pic63.bmp,Mask.bmp,041117,13:06:22,5.0.6.0,13,neutral,6,54,464,minus1,0,GREY.bmp,Judgeindirect,blacksquare2.gif,pic57.bmp,Mask.bmp,041117,13:06:22,5.0.6.0,13,blackindirect,6,55,511,plus1,0,b05.bmp,Judgeindirect,blacksquare2.gif,pic14.bmp,Mask.bmp,041117,13:06:22,5.0.6.0,13,neutral,6,56,323,plus1,0,GREY.bmp,Judgeindirect,blacksquare2.gif,pic65.bmp,Mask.bmp,041117,13:06:22,5.0.6.0,13,blackindirect,6,57,87,plus1,0,b02.bmp,Judgeindirect,blacksquare2.gif,pic39.bmp,Mask.bmp,041117,13:06:22,5.0.6.0,13,whiteindirect,6,58,1965,plus1,0,w09.bmp,Judgeindirect,blacksquare2.gif,pic17.bmp,Mask.bmp,041117,13:06:22,5.0.6.0,13,whiteindirect,6,59,1007,minus1,0,b10.jpg,Judgeindirect,blacksquare2.gif,pic9.bmp,Mask.bmp,041117,13:06:22,5.0.6.0,13,blackindirect,6,60,1872,plus1,0,b11.bmp,Judgeindirect,blacksquare2.gif,pic19.bmp,Mask.bmp,041117,13:06:22,5.0.6.0,13,neutral,6,61,846,plus1,0,GREY.bmp,Judgeindirect,blacksquare2.gif,pic67.bmp,Mask.bmp,041117,13:06:22,5.0.6.0,13,neutral,6,62,669,minus1,0,GREY.bmp,Judgeindirect,blacksquare2.gif,pic62.bmp,Mask.bmp,041117,13:06:22,5.0.6.0,13,blackindirect,6,63,851,plus1,0,b10.bmp,Judgeindirect,blacksquare2.gif,pic21.bmp,Mask.bmp,041117,13:06:22,5.0.6.0,13,whiteindirect,6,64,1154,plus1,0,b11.jpg,Judgeindirect,blacksquare2.gif,pic12.bmp,Mask.bmp,041117,13:06:22,5.0.6.0,13,neutral,6,65,1773,plus1,0,GREY.bmp,Judgeindirect,blacksquare2.gif,pic68.bmp,Mask.bmp,041117,13:06:22,5.0.6.0,13,blackindirect,6,66,271,plus1,0,b01.bmp,Judgeindirect,blacksquare2.gif,pic29.bmp,Mask.bmp,041117,13:06:22,5.0.6.0,13,blackindirect,6,67,181,plus1,0,b04.bmp,Judgeindirect,blacksquare2.gif,pic24.bmp,Mask.bmp,041117,13:06:22,5.0.6.0,13,whiteindirect,6,68,31,plus1,0,w06.bmp,Judgeindirect,blacksquare2.gif,pic25.bmp,Mask.bmp,041117,13:06:22,5.0.6.0,13,neutral,6,69,1126,plus2,0,GREY.bmp,Judgeindirect,blacksquare2.gif,pic3.bmp,Mask.bmp,041117,13:06:22,5.0.6.0,13,neutral,6,70,1170,minus1,0,GREY.bmp,Judgeindirect,blacksquare2.gif,pic34.bmp,Mask.bmp,041117,13:06:22,5.0.6.0,13,neutral,6,71,13668,plus1,0,GREY.bmp,Judgeindirect,blacksquare2.gif,pic18.bmp,Mask.bmp,041117,13:06:22,5.0.6.0,13,neutral,6,72,1596,plus1,0,GREY.bmp,Judgeindirect,blacksquare2.gif,pic30.bmp,Mask.bmp,041117,13:06:22,5.0.6.0,13,gender,7,1,10742,1,1,0,demo,0,0,0,041117,13:06:22,5.0.6.0,13,age,7,1,10742,19,1,0,demo,0,0,0,041117,13:06:22,5.0.6.0,13,ethnicity,7,1,10742,"White, non-Hispanic or Latino",1,0,demo,0,0,0,041117,13:27:07,5.0.6.0,15,practice,1,1,3184,57,1,sample.bmp,orient1,blacksquare2.gif,pic76.bmp,Mask.bmp,041117,13:27:07,5.0.6.0,15,neutral,4,1,5942,plus1,0,GREY.bmp,Judgeindirect,blacksquare2.gif,pic11.bmp,Mask.bmp,041117,13:27:07,5.0.6.0,15,whiteindirect,4,2,1354,minus1,0,b11.jpg,Judgeindirect,blacksquare2.gif,pic34.bmp,Mask.bmp,041117,13:27:07,5.0.6.0,15,whiteindirect,4,3,1613,minus1,0,w09.bmp,Judgeindirect,blacksquare2.gif,pic49.bmp,Mask.bmp,041117,13:27:07,5.0.6.0,15,blackindirect,4,4,1917,minus1,0,b07.bmp,Judgeindirect,blacksquare2.gif,pic69.bmp,Mask.bmp,041117,13:27:07,5.0.6.0,15,blackindirect,4,5,1338,plus1,0,b02.bmp,Judgeindirect,blacksquare2.gif,pic25.bmp,Mask.bmp,041117,13:27:07,5.0.6.0,15,blackindirect,4,6,781,plus1,0,b09.bmp,Judgeindirect,blacksquare2.gif,pic29.bmp,Mask.bmp,041117,13:27:07,5.0.6.0,15,whiteindirect,4,7,1191,minus1,0,w02.bmp,Judgeindirect,blacksquare2.gif,pic10.bmp,Mask.bmp,041117,13:27:07,5.0.6.0,15,whiteindirect,4,8,2521,minus1,0,w03.bmp,Judgeindirect,blacksquare2.gif,pic53.bmp,Mask.bmp,041117,13:27:07,5.0.6.0,15,neutral,4,9,1461,plus2,0,GREY.bmp,Judgeindirect,blacksquare2.gif,pic2.bmp,Mask.bmp,041117,13:27:07,5.0.6.0,15,neutral,4,10,1491,plus1,0,GREY.bmp,Judgeindirect,blacksquare2.gif,pic22.bmp,Mask.bmp,041117,13:27:07,5.0.6.0,15,neutral,4,11,1969,plus1,0,GREY.bmp,Judgeindirect,blacksquare2.gif,pic30.bmp,Mask.bmp,041117,13:27:07,5.0.6.0,15,blackindirect,4,12,1211,minus2,0,b01.bmp,Judgeindirect,blacksquare2.gif,pic73.bmp,Mask.bmp,041117,13:27:07,5.0.6.0,15,neutral,4,13,1700,minus1,0,GREY.bmp,Judgeindirect,blacksquare2.gif,pic63.bmp,Mask.bmp,041117,13:27:07,5.0.6.0,15,neutral,4,14,841,plus2,0,GREY.bmp,Judgeindirect,blacksquare2.gif,pic17.bmp,Mask.bmp,041117,13:27:07,5.0.6.0,15,neutral,4,15,1696,minus1,0,GREY.bmp,Judgeindirect,blacksquare2.gif,pic55.bmp,Mask.bmp,041117,13:27:07,5.0.6.0,15,whiteindirect,4,16,2597,plus1,0,w07.bmp,Judgeindirect,blacksquare2.gif,pic39.bmp,Mask.bmp,041117,13:27:07,5.0.6.0,15,blackindirect,4,17,2375,minus1,0,b06.bmp,Judgeindirect,blacksquare2.gif,pic54.bmp,Mask.bmp,041117,13:27:07,5.0.6.0,15,blackindirect,4,18,2025,plus1,0,b10.bmp,Judgeindirect,blacksquare2.gif,pic70.bmp,Mask.bmp,041117,13:27:07,5.0.6.0,15,blackindirect,4,19,809,plus1,0,b08.bmp,Judgeindirect,blacksquare2.gif,pic8.bmp,Mask.bmp,041117,13:27:07,5.0.6.0,15,blackindirect,4,20,618,plus1,0,b04.bmp,Judgeindirect,blacksquare2.gif,pic46.bmp,Mask.bmp,041117,13:27:07,5.0.6.0,15,blackindirect,4,21,610,plus1,0,b11.bmp,Judgeindirect,blacksquare2.gif,pic19.bmp,Mask.bmp,041117,13:27:07,5.0.6.0,15,blackindirect,4,22,611,plus1,0,b05.bmp,Judgeindirect,blacksquare2.gif,pic6.bmp,Mask.bmp,041117,13:27:07,5.0.6.0,15,whiteindirect,4,23,1636,minus1,0,w04.bmp,Judgeindirect,blacksquare2.gif,pic61.bmp,Mask.bmp,041117,13:27:07,5.0.6.0,15,whiteindirect,4,24,1291,plus1,0,b12.jpg,Judgeindirect,blacksquare2.gif,pic66.bmp,Mask.bmp,041117,13:27:07,5.0.6.0,15,neutral,4,25,1992,plus1,0,GREY.bmp,Judgeindirect,blacksquare2.gif,pic58.bmp,Mask.bmp,041117,13:27:07,5.0.6.0,15,neutral,4,26,1794,minus1,0,GREY.bmp,Judgeindirect,blacksquare2.gif,pic50.bmp,Mask.bmp,041117,13:27:07,5.0.6.0,15,neutral,4,27,1252,plus2,0,GREY.bmp,Judgeindirect,blacksquare2.gif,pic33.bmp,Mask.bmp,041117,13:27:07,5.0.6.0,15,blackindirect,4,28,986,plus2,0,b12.bmp,Judgeindirect,blacksquare2.gif,pic27.bmp,Mask.bmp,041117,13:27:07,5.0.6.0,15,neutral,4,29,1740,minus1,0,GREY.bmp,Judgeindirect,blacksquare2.gif,pic64.bmp,Mask.bmp,041117,13:27:07,5.0.6.0,15,whiteindirect,4,30,1351,plus1,0,w01.bmp,Judgeindirect,blacksquare2.gif,pic67.bmp,Mask.bmp,041117,13:27:07,5.0.6.0,15,blackindirect,4,31,1666,plus2,0,b03.bmp,Judgeindirect,blacksquare2.gif,pic23.bmp,Mask.bmp,041117,13:27:07,5.0.6.0,15,whiteindirect,4,32,1352,plus1,0,b10.jpg,Judgeindirect,blacksquare2.gif,pic26.bmp,Mask.bmp,041117,13:27:07,5.0.6.0,15,whiteindirect,4,33,1539,plus1,0,w05.bmp,Judgeindirect,blacksquare2.gif,pic18.bmp,Mask.bmp,041117,13:27:07,5.0.6.0,15,neutral,4,34,1659,plus1,0,GREY.bmp,Judgeindirect,blacksquare2.gif,pic43.bmp,Mask.bmp,041117,13:27:07,5.0.6.0,15,whiteindirect,4,35,717,minus1,0,w06.bmp,Judgeindirect,blacksquare2.gif,pic37.bmp,Mask.bmp,041117,13:27:07,5.0.6.0,15,blackindirect,4,36,1169,minus2,0,b01.bmp,Judgeindirect,blacksquare2.gif,pic56.bmp,Mask.bmp,041117,13:27:07,5.0.6.0,15,blackindirect,4,37,1827,plus1,0,b10.bmp,Judgeindirect,blacksquare2.gif,pic3.bmp,Mask.bmp,041117,13:27:07,5.0.6.0,15,neutral,4,38,691,plus1,0,GREY.bmp,Judgeindirect,blacksquare2.gif,pic47.bmp,Mask.bmp,041117,13:27:07,5.0.6.0,15,blackindirect,4,39,1817,minus1,0,b12.bmp,Judgeindirect,blacksquare2.gif,pic45.bmp,Mask.bmp,041117,13:27:07,5.0.6.0,15,blackindirect,4,40,2081,minus1,0,b09.bmp,Judgeindirect,blacksquare2.gif,pic20.bmp,Mask.bmp,041117,13:27:07,5.0.6.0,15,whiteindirect,4,41,1239,plus1,0,w08.bmp,Judgeindirect,blacksquare2.gif,pic15.bmp,Mask.bmp,041117,13:27:07,5.0.6.0,15,neutral,4,42,1054,plus2,0,GREY.bmp,Judgeindirect,blacksquare2.gif,pic72.bmp,Mask.bmp,041117,13:27:07,5.0.6.0,15,blackindirect,4,43,1253,plus1,0,b07.bmp,Judgeindirect,blacksquare2.gif,pic74.bmp,Mask.bmp,041117,13:27:07,5.0.6.0,15,neutral,4,44,1220,minus1,0,GREY.bmp,Judgeindirect,blacksquare2.gif,pic40.bmp,Mask.bmp,041117,13:27:07,5.0.6.0,15,blackindirect,4,45,1764,minus1,0,b06.bmp,Judgeindirect,blacksquare2.gif,pic65.bmp,Mask.bmp,041117,13:27:07,5.0.6.0,15,blackindirect,4,46,1103,plus2,0,b03.bmp,Judgeindirect,blacksquare2.gif,pic68.bmp,Mask.bmp,041117,13:27:07,5.0.6.0,15,whiteindirect,4,47,1180,plus2,0,b11.jpg,Judgeindirect,blacksquare2.gif,pic9.bmp,Mask.bmp,041117,13:27:07,5.0.6.0,15,blackindirect,4,48,1678,minus1,0,b11.bmp,Judgeindirect,blacksquare2.gif,pic21.bmp,Mask.bmp,041117,13:27:07,5.0.6.0,15,blackindirect,4,49,852,minus1,0,b04.bmp,Judgeindirect,blacksquare2.gif,pic1.bmp,Mask.bmp,041117,13:27:07,5.0.6.0,15,whiteindirect,4,50,1051,minus1,0,w09.bmp,Judgeindirect,blacksquare2.gif,pic71.bmp,Mask.bmp,041117,13:27:07,5.0.6.0,15,blackindirect,4,51,1577,minus1,0,b02.bmp,Judgeindirect,blacksquare2.gif,pic52.bmp,Mask.bmp,041117,13:27:07,5.0.6.0,15,whiteindirect,4,52,820,plus1,0,w02.bmp,Judgeindirect,blacksquare2.gif,pic42.bmp,Mask.bmp,041117,13:27:07,5.0.6.0,15,neutral,4,53,1052,plus2,0,GREY.bmp,Judgeindirect,blacksquare2.gif,pic13.bmp,Mask.bmp,041117,13:27:07,5.0.6.0,15,whiteindirect,4,54,690,plus1,0,w08.bmp,Judgeindirect,blacksquare2.gif,pic24.bmp,Mask.bmp,041117,13:27:07,5.0.6.0,15,whiteindirect,4,55,1288,minus2,0,w07.bmp,Judgeindirect,blacksquare2.gif,pic62.bmp,Mask.bmp,041117,13:27:07,5.0.6.0,15,neutral,4,56,765,minus2,0,GREY.bmp,Judgeindirect,blacksquare2.gif,pic28.bmp,Mask.bmp,041117,13:27:07,5.0.6.0,15,blackindirect,4,57,1023,minus1,0,b08.bmp,Judgeindirect,blacksquare2.gif,pic57.bmp,Mask.bmp,041117,13:27:07,5.0.6.0,15,whiteindirect,4,58,975,minus1,0,b10.jpg,Judgeindirect,blacksquare2.gif,pic31.bmp,Mask.bmp,041117,13:27:07,5.0.6.0,15,neutral,4,59,529,minus1,0,GREY.bmp,Judgeindirect,blacksquare2.gif,pic41.bmp,Mask.bmp,041117,13:27:07,5.0.6.0,15,neutral,4,60,998,plus1,0,GREY.bmp,Judgeindirect,blacksquare2.gif,pic7.bmp,Mask.bmp,041117,13:27:07,5.0.6.0,15,neutral,4,61,455,plus1,0,GREY.bmp,Judgeindirect,blacksquare2.gif,pic51.bmp,Mask.bmp,041117,13:27:07,5.0.6.0,15,whiteindirect,4,62,1006,plus1,0,w05.bmp,Judgeindirect,blacksquare2.gif,pic14.bmp,Mask.bmp,041117,13:27:07,5.0.6.0,15,neutral,4,63,1062,minus1,0,GREY.bmp,Judgeindirect,blacksquare2.gif,pic60.bmp,Mask.bmp,041117,13:27:07,5.0.6.0,15,neutral,4,64,5581,plus2,0,GREY.bmp,Judgeindirect,blacksquare2.gif,pic75.bmp,Mask.bmp,041117,13:27:07,5.0.6.0,15,whiteindirect,4,65,3207,minus1,0,w04.bmp,Judgeindirect,blacksquare2.gif,pic44.bmp,Mask.bmp,041117,13:27:07,5.0.6.0,15,neutral,4,66,824,plus1,0,GREY.bmp,Judgeindirect,blacksquare2.gif,pic36.bmp,Mask.bmp,041117,13:27:07,5.0.6.0,15,whiteindirect,4,67,1400,minus1,0,w06.bmp,Judgeindirect,blacksquare2.gif,pic5.bmp,Mask.bmp,041117,13:27:07,5.0.6.0,15,neutral,4,68,537,minus1,0,GREY.bmp,Judgeindirect,blacksquare2.gif,pic59.bmp,Mask.bmp,041117,13:27:07,5.0.6.0,15,whiteindirect,4,69,484,minus1,0,b12.jpg,Judgeindirect,blacksquare2.gif,pic4.bmp,Mask.bmp,041117,13:27:07,5.0.6.0,15,blackindirect,4,70,2290,minus2,0,b05.bmp,Judgeindirect,blacksquare2.gif,pic12.bmp,Mask.bmp,041117,13:27:07,5.0.6.0,15,whiteindirect,4,71,823,minus1,0,w03.bmp,Judgeindirect,blacksquare2.gif,pic48.bmp,Mask.bmp,041117,13:27:07,5.0.6.0,15,whiteindirect,4,72,919,plus1,0,w01.bmp,Judgeindirect,blacksquare2.gif,pic32.bmp,Mask.bmp,041117,13:27:07,5.0.6.0,15,whitedirect,6,1,2791,plus1,0,w06.bmp,Judgedirect,blacksquare2.gif,pic103.bmp,Mask.bmp,041117,13:27:07,5.0.6.0,15,blackdirect,6,2,1225,plus2,0,b10.bmp,Judgedirect,blacksquare2.gif,pic113.bmp,Mask.bmp,041117,13:27:07,5.0.6.0,15,whitedirect,6,3,1737,minus1,0,w03.bmp,Judgedirect,blacksquare2.gif,pic102.bmp,Mask.bmp,041117,13:27:07,5.0.6.0,15,blackdirect,6,4,1084,minus1,0,b03.bmp,Judgedirect,blacksquare2.gif,pic108.bmp,Mask.bmp,041117,13:27:07,5.0.6.0,15,whitedirect,6,5,1354,plus1,0,w01.bmp,Judgedirect,blacksquare2.gif,pic101.bmp,Mask.bmp,041117,13:27:07,5.0.6.0,15,blackdirect,6,6,1292,plus2,0,b05.bmp,Judgedirect,blacksquare2.gif,pic100.bmp,Mask.bmp,041117,13:27:07,5.0.6.0,15,whitedirect,6,7,1378,minus1,0,w07.bmp,Judgedirect,blacksquare2.gif,pic82.bmp,Mask.bmp,041117,13:27:07,5.0.6.0,15,blackdirect,6,8,1132,plus1,0,b12.bmp,Judgedirect,blacksquare2.gif,pic116.bmp,Mask.bmp,041117,13:27:07,5.0.6.0,15,whitedirect,6,9,1183,minus1,0,w04.bmp,Judgedirect,blacksquare2.gif,pic115.bmp,Mask.bmp,041117,13:27:07,5.0.6.0,15,blackdirect,6,10,1257,plus1,0,b06.bmp,Judgedirect,blacksquare2.gif,pic104.bmp,Mask.bmp,041117,13:27:07,5.0.6.0,15,whitedirect,6,11,840,minus2,0,w02.bmp,Judgedirect,blacksquare2.gif,pic81.bmp,Mask.bmp,041117,13:27:07,5.0.6.0,15,blackdirect,6,12,1159,plus1,0,b08.bmp,Judgedirect,blacksquare2.gif,pic117.bmp,Mask.bmp,041117,13:27:07,5.0.6.0,15,whitedirect,6,13,594,plus1,0,w05.bmp,Judgedirect,blacksquare2.gif,pic105.bmp,Mask.bmp,041117,13:27:07,5.0.6.0,15,blackdirect,6,14,883,plus2,0,b01.bmp,Judgedirect,blacksquare2.gif,pic114.bmp,Mask.bmp,041117,13:27:07,5.0.6.0,15,whitedirect,6,15,800,minus1,0,w08.bmp,Judgedirect,blacksquare2.gif,pic80.bmp,Mask.bmp,041117,13:27:07,5.0.6.0,15,blackdirect,6,16,1529,minus2,0,b02.bmp,Judgedirect,blacksquare2.gif,pic78.bmp,Mask.bmp,041117,13:27:07,5.0.6.0,15,whitedirect,6,17,2077,minus1,0,w09.bmp,Judgedirect,blacksquare2.gif,pic111.bmp,Mask.bmp,041117,13:27:07,5.0.6.0,15,blackdirect,6,18,1460,plus1,0,b09.bmp,Judgedirect,blacksquare2.gif,pic107.bmp,Mask.bmp,041117,13:27:07,5.0.6.0,15,whitedirect,6,19,1010,plus2,0,b12.jpg,Judgedirect,blacksquare2.gif,pic79.bmp,Mask.bmp,041117,13:27:07,5.0.6.0,15,blackdirect,6,20,923,plus1,0,b04.bmp,Judgedirect,blacksquare2.gif,pic109.bmp,Mask.bmp,041117,13:27:07,5.0.6.0,15,whitedirect,6,21,1159,plus1,0,b10.jpg,Judgedirect,blacksquare2.gif,pic106.bmp,Mask.bmp,041117,13:27:07,5.0.6.0,15,blackdirect,6,22,1482,plus1,0,b07.bmp,Judgedirect,blacksquare2.gif,pic110.bmp,Mask.bmp,041117,13:27:07,5.0.6.0,15,whitedirect,6,23,823,minus1,0,b11.jpg,Judgedirect,blacksquare2.gif,pic118.bmp,Mask.bmp,041117,13:27:07,5.0.6.0,15,blackdirect,6,24,1255,plus1,0,b11.bmp,Judgedirect,blacksquare2.gif,pic112.bmp,Mask.bmp,041117,13:27:07,5.0.6.0,15,gender,7,1,11653,2,1,0,demo,0,0,0,041117,13:27:07,5.0.6.0,15,age,7,1,11653,19,1,0,demo,0,0,0,041117,13:27:07,5.0.6.0,15,ethnicity,7,1,11653,Latino or Hispanic,1,0,demo,0,0,0,041117,13:44:24,5.0.6.0,18,practice,1,1,4635,57,1,sample.bmp,orient1,blacksquare2.gif,pic76.bmp,Mask.bmp,041117,13:44:24,5.0.6.0,18,neutral,4,1,12316,plus1,0,GREY.bmp,Judgeindirect,blacksquare2.gif,pic26.bmp,Mask.bmp,041117,13:44:24,5.0.6.0,18,whiteindirect,4,2,4473,plus1,0,w09.bmp,Judgeindirect,blacksquare2.gif,pic3.bmp,Mask.bmp,041117,13:44:24,5.0.6.0,18,neutral,4,3,2792,plus1,0,GREY.bmp,Judgeindirect,blacksquare2.gif,pic27.bmp,Mask.bmp,041117,13:44:24,5.0.6.0,18,blackindirect,4,4,4025,plus1,0,b04.bmp,Judgeindirect,blacksquare2.gif,pic46.bmp,Mask.bmp,041117,13:44:24,5.0.6.0,18,whiteindirect,4,5,6002,plus1,0,w01.bmp,Judgeindirect,blacksquare2.gif,pic14.bmp,Mask.bmp,041117,13:44:24,5.0.6.0,18,whiteindirect,4,6,3211,minus1,0,w03.bmp,Judgeindirect,blacksquare2.gif,pic34.bmp,Mask.bmp,041117,13:44:24,5.0.6.0,18,whiteindirect,4,7,1956,plus1,0,w06.bmp,Judgeindirect,blacksquare2.gif,pic63.bmp,Mask.bmp,041117,13:44:24,5.0.6.0,18,neutral,4,8,1471,plus2,0,GREY.bmp,Judgeindirect,blacksquare2.gif,pic16.bmp,Mask.bmp,041117,13:44:24,5.0.6.0,18,whiteindirect,4,9,3277,plus1,0,w02.bmp,Judgeindirect,blacksquare2.gif,pic37.bmp,Mask.bmp,041117,13:44:24,5.0.6.0,18,blackindirect,4,10,3027,plus1,0,b01.bmp,Judgeindirect,blacksquare2.gif,pic40.bmp,Mask.bmp,041117,13:44:24,5.0.6.0,18,blackindirect,4,11,1699,minus1,0,b08.bmp,Judgeindirect,blacksquare2.gif,pic38.bmp,Mask.bmp,041117,13:44:24,5.0.6.0,18,blackindirect,4,12,2320,plus1,0,b10.bmp,Judgeindirect,blacksquare2.gif,pic36.bmp,Mask.bmp,041117,13:44:24,5.0.6.0,18,neutral,4,13,3020,plus1,0,GREY.bmp,Judgeindirect,blacksquare2.gif,pic39.bmp,Mask.bmp,041117,13:44:24,5.0.6.0,18,blackindirect,4,14,1332,minus1,0,b07.bmp,Judgeindirect,blacksquare2.gif,pic66.bmp,Mask.bmp,041117,13:44:24,5.0.6.0,18,blackindirect,4,15,1591,minus1,0,b11.bmp,Judgeindirect,blacksquare2.gif,pic33.bmp,Mask.bmp,041117,13:44:24,5.0.6.0,18,whiteindirect,4,16,1353,minus1,0,w05.bmp,Judgeindirect,blacksquare2.gif,pic45.bmp,Mask.bmp,041117,13:44:24,5.0.6.0,18,whiteindirect,4,17,1132,plus1,0,w04.bmp,Judgeindirect,blacksquare2.gif,pic4.bmp,Mask.bmp,041117,13:44:24,5.0.6.0,18,whiteindirect,4,18,1487,plus2,0,b10.jpg,Judgeindirect,blacksquare2.gif,pic68.bmp,Mask.bmp,041117,13:44:24,5.0.6.0,18,blackindirect,4,19,2477,minus1,0,b09.bmp,Judgeindirect,blacksquare2.gif,pic64.bmp,Mask.bmp,041117,13:44:24,5.0.6.0,18,whiteindirect,4,20,1875,minus1,0,b12.jpg,Judgeindirect,blacksquare2.gif,pic62.bmp,Mask.bmp,041117,13:44:24,5.0.6.0,18,neutral,4,21,2161,plus1,0,GREY.bmp,Judgeindirect,blacksquare2.gif,pic49.bmp,Mask.bmp,041117,13:44:24,5.0.6.0,18,whiteindirect,4,22,2149,plus1,0,w07.bmp,Judgeindirect,blacksquare2.gif,pic9.bmp,Mask.bmp,041117,13:44:24,5.0.6.0,18,blackindirect,4,23,3215,plus1,0,b05.bmp,Judgeindirect,blacksquare2.gif,pic55.bmp,Mask.bmp,041117,13:44:24,5.0.6.0,18,whiteindirect,4,24,1863,plus1,0,w08.bmp,Judgeindirect,blacksquare2.gif,pic8.bmp,Mask.bmp,041117,13:44:24,5.0.6.0,18,blackindirect,4,25,1814,minus1,0,b06.bmp,Judgeindirect,blacksquare2.gif,pic56.bmp,Mask.bmp,041117,13:44:24,5.0.6.0,18,blackindirect,4,26,2367,minus1,0,b02.bmp,Judgeindirect,blacksquare2.gif,pic30.bmp,Mask.bmp,041117,13:44:24,5.0.6.0,18,blackindirect,4,27,953,plus1,0,b12.bmp,Judgeindirect,blacksquare2.gif,pic67.bmp,Mask.bmp,041117,13:44:24,5.0.6.0,18,neutral,4,28,1852,plus1,0,GREY.bmp,Judgeindirect,blacksquare2.gif,pic69.bmp,Mask.bmp,041117,13:44:24,5.0.6.0,18,neutral,4,29,1234,plus2,0,GREY.bmp,Judgeindirect,blacksquare2.gif,pic70.bmp,Mask.bmp,041117,13:44:24,5.0.6.0,18,blackindirect,4,30,2090,plus1,0,b03.bmp,Judgeindirect,blacksquare2.gif,pic41.bmp,Mask.bmp,041117,13:44:24,5.0.6.0,18,neutral,4,31,1423,plus1,0,GREY.bmp,Judgeindirect,blacksquare2.gif,pic25.bmp,Mask.bmp,041117,13:44:24,5.0.6.0,18,neutral,4,32,1631,plus1,0,GREY.bmp,Judgeindirect,blacksquare2.gif,pic32.bmp,Mask.bmp,041117,13:44:24,5.0.6.0,18,neutral,4,33,1671,plus1,0,GREY.bmp,Judgeindirect,blacksquare2.gif,pic13.bmp,Mask.bmp,041117,13:44:24,5.0.6.0,18,whiteindirect,4,34,1285,plus1,0,b11.jpg,Judgeindirect,blacksquare2.gif,pic7.bmp,Mask.bmp,041117,13:44:24,5.0.6.0,18,whiteindirect,4,35,2971,minus1,0,b12.jpg,Judgeindirect,blacksquare2.gif,pic17.bmp,Mask.bmp,041117,13:44:24,5.0.6.0,18,blackindirect,4,36,1421,minus1,0,b06.bmp,Judgeindirect,blacksquare2.gif,pic29.bmp,Mask.bmp,041117,13:44:24,5.0.6.0,18,neutral,4,37,1109,plus1,0,GREY.bmp,Judgeindirect,blacksquare2.gif,pic6.bmp,Mask.bmp,041117,13:44:24,5.0.6.0,18,blackindirect,4,38,1218,plus1,0,b09.bmp,Judgeindirect,blacksquare2.gif,pic50.bmp,Mask.bmp,041117,13:44:24,5.0.6.0,18,whiteindirect,4,39,1410,plus1,0,w04.bmp,Judgeindirect,blacksquare2.gif,pic57.bmp,Mask.bmp,041117,13:44:24,5.0.6.0,18,whiteindirect,4,40,1650,plus1,0,w01.bmp,Judgeindirect,blacksquare2.gif,pic12.bmp,Mask.bmp,041117,13:44:24,5.0.6.0,18,whiteindirect,4,41,2081,plus1,0,b11.jpg,Judgeindirect,blacksquare2.gif,pic22.bmp,Mask.bmp,041117,13:44:24,5.0.6.0,18,blackindirect,4,42,1471,plus1,0,b10.bmp,Judgeindirect,blacksquare2.gif,pic15.bmp,Mask.bmp,041117,13:44:24,5.0.6.0,18,whiteindirect,4,43,1677,plus1,0,w02.bmp,Judgeindirect,blacksquare2.gif,pic58.bmp,Mask.bmp,041117,13:44:24,5.0.6.0,18,whiteindirect,4,44,1492,minus1,0,w08.bmp,Judgeindirect,blacksquare2.gif,pic18.bmp,Mask.bmp,041117,13:44:24,5.0.6.0,18,neutral,4,45,1593,plus1,0,GREY.bmp,Judgeindirect,blacksquare2.gif,pic53.bmp,Mask.bmp,041117,13:44:24,5.0.6.0,18,neutral,4,46,1219,plus1,0,GREY.bmp,Judgeindirect,blacksquare2.gif,pic52.bmp,Mask.bmp,041117,13:44:24,5.0.6.0,18,neutral,4,47,1787,plus1,0,GREY.bmp,Judgeindirect,blacksquare2.gif,pic72.bmp,Mask.bmp,041117,13:44:24,5.0.6.0,18,neutral,4,48,1948,minus1,0,GREY.bmp,Judgeindirect,blacksquare2.gif,pic31.bmp,Mask.bmp,041117,13:44:24,5.0.6.0,18,neutral,4,49,1375,minus1,0,GREY.bmp,Judgeindirect,blacksquare2.gif,pic5.bmp,Mask.bmp,041117,13:44:24,5.0.6.0,18,whiteindirect,4,50,1369,plus1,0,w09.bmp,Judgeindirect,blacksquare2.gif,pic10.bmp,Mask.bmp,041117,13:44:24,5.0.6.0,18,neutral,4,51,2131,plus1,0,GREY.bmp,Judgeindirect,blacksquare2.gif,pic61.bmp,Mask.bmp,041117,13:44:24,5.0.6.0,18,neutral,4,52,2023,plus1,0,GREY.bmp,Judgeindirect,blacksquare2.gif,pic59.bmp,Mask.bmp,041117,13:44:24,5.0.6.0,18,neutral,4,53,2087,plus1,0,GREY.bmp,Judgeindirect,blacksquare2.gif,pic28.bmp,Mask.bmp,041117,13:44:24,5.0.6.0,18,blackindirect,4,54,1621,plus1,0,b03.bmp,Judgeindirect,blacksquare2.gif,pic65.bmp,Mask.bmp,041117,13:44:24,5.0.6.0,18,neutral,4,55,1357,minus1,0,GREY.bmp,Judgeindirect,blacksquare2.gif,pic54.bmp,Mask.bmp,041117,13:44:24,5.0.6.0,18,whiteindirect,4,56,1896,plus1,0,w05.bmp,Judgeindirect,blacksquare2.gif,pic19.bmp,Mask.bmp,041117,13:44:24,5.0.6.0,18,whiteindirect,4,57,1301,plus1,0,b10.jpg,Judgeindirect,blacksquare2.gif,pic24.bmp,Mask.bmp,041117,13:44:24,5.0.6.0,18,blackindirect,4,58,1274,minus1,0,b05.bmp,Judgeindirect,blacksquare2.gif,pic11.bmp,Mask.bmp,041117,13:44:24,5.0.6.0,18,neutral,4,59,2264,plus1,0,GREY.bmp,Judgeindirect,blacksquare2.gif,pic43.bmp,Mask.bmp,041117,13:44:24,5.0.6.0,18,whiteindirect,4,60,1119,minus1,0,w07.bmp,Judgeindirect,blacksquare2.gif,pic42.bmp,Mask.bmp,041117,13:44:24,5.0.6.0,18,blackindirect,4,61,947,minus1,0,b04.bmp,Judgeindirect,blacksquare2.gif,pic20.bmp,Mask.bmp,041117,13:44:24,5.0.6.0,18,blackindirect,4,62,1798,minus1,0,b01.bmp,Judgeindirect,blacksquare2.gif,pic48.bmp,Mask.bmp,041117,13:44:24,5.0.6.0,18,whiteindirect,4,63,1183,minus1,0,w06.bmp,Judgeindirect,blacksquare2.gif,pic73.bmp,Mask.bmp,041117,13:44:24,5.0.6.0,18,neutral,4,64,961,plus1,0,GREY.bmp,Judgeindirect,blacksquare2.gif,pic47.bmp,Mask.bmp,041117,13:44:24,5.0.6.0,18,blackindirect,4,65,1524,minus1,0,b02.bmp,Judgeindirect,blacksquare2.gif,pic60.bmp,Mask.bmp,041117,13:44:24,5.0.6.0,18,blackindirect,4,66,1288,plus1,0,b07.bmp,Judgeindirect,blacksquare2.gif,pic1.bmp,Mask.bmp,041117,13:44:24,5.0.6.0,18,blackindirect,4,67,1045,plus1,0,b11.bmp,Judgeindirect,blacksquare2.gif,pic44.bmp,Mask.bmp,041117,13:44:24,5.0.6.0,18,whiteindirect,4,68,1405,plus1,0,w03.bmp,Judgeindirect,blacksquare2.gif,pic71.bmp,Mask.bmp,041117,13:44:24,5.0.6.0,18,neutral,4,69,1301,plus2,0,GREY.bmp,Judgeindirect,blacksquare2.gif,pic23.bmp,Mask.bmp,041117,13:44:24,5.0.6.0,18,blackindirect,4,70,1290,minus1,0,b12.bmp,Judgeindirect,blacksquare2.gif,pic75.bmp,Mask.bmp,041117,13:44:24,5.0.6.0,18,neutral,4,71,1536,plus1,0,GREY.bmp,Judgeindirect,blacksquare2.gif,pic51.bmp,Mask.bmp,041117,13:44:24,5.0.6.0,18,blackindirect,4,72,1283,plus1,0,b08.bmp,Judgeindirect,blacksquare2.gif,pic21.bmp,Mask.bmp,041117,13:44:24,5.0.6.0,18,whitedirect,6,1,1836,minus1,0,w05.bmp,Judgedirect,blacksquare2.gif,pic78.bmp,Mask.bmp,041117,13:44:24,5.0.6.0,18,blackdirect,6,2,1172,minus1,0,b03.bmp,Judgedirect,blacksquare2.gif,pic110.bmp,Mask.bmp,041117,13:44:24,5.0.6.0,18,whitedirect,6,3,862,plus1,0,w04.bmp,Judgedirect,blacksquare2.gif,pic114.bmp,Mask.bmp,041117,13:44:24,5.0.6.0,18,blackdirect,6,4,757,minus1,0,b08.bmp,Judgedirect,blacksquare2.gif,pic101.bmp,Mask.bmp,041117,13:44:24,5.0.6.0,18,whitedirect,6,5,856,plus1,0,w08.bmp,Judgedirect,blacksquare2.gif,pic111.bmp,Mask.bmp,041117,13:44:24,5.0.6.0,18,blackdirect,6,6,998,minus1,0,b11.bmp,Judgedirect,blacksquare2.gif,pic105.bmp,Mask.bmp,041117,13:44:24,5.0.6.0,18,whitedirect,6,7,2023,minus1,0,b10.jpg,Judgedirect,blacksquare2.gif,pic109.bmp,Mask.bmp,041117,13:44:24,5.0.6.0,18,blackdirect,6,8,1135,plus1,0,b07.bmp,Judgedirect,blacksquare2.gif,pic118.bmp,Mask.bmp,041117,13:44:24,5.0.6.0,18,whitedirect,6,9,1635,minus1,0,w03.bmp,Judgedirect,blacksquare2.gif,pic112.bmp,Mask.bmp,041117,13:44:24,5.0.6.0,18,blackdirect,6,10,1210,minus1,0,b01.bmp,Judgedirect,blacksquare2.gif,pic103.bmp,Mask.bmp,041117,13:44:24,5.0.6.0,18,whitedirect,6,11,795,plus1,0,b12.jpg,Judgedirect,blacksquare2.gif,pic102.bmp,Mask.bmp,041117,13:44:24,5.0.6.0,18,blackdirect,6,12,1164,plus1,0,b12.bmp,Judgedirect,blacksquare2.gif,pic104.bmp,Mask.bmp,041117,13:44:24,5.0.6.0,18,whitedirect,6,13,1327,plus1,0,w02.bmp,Judgedirect,blacksquare2.gif,pic116.bmp,Mask.bmp,041117,13:44:24,5.0.6.0,18,blackdirect,6,14,1019,plus1,0,b02.bmp,Judgedirect,blacksquare2.gif,pic100.bmp,Mask.bmp,041117,13:44:24,5.0.6.0,18,whitedirect,6,15,723,minus1,0,b11.jpg,Judgedirect,blacksquare2.gif,pic80.bmp,Mask.bmp,041117,13:44:24,5.0.6.0,18,blackdirect,6,16,1207,minus1,0,b10.bmp,Judgedirect,blacksquare2.gif,pic82.bmp,Mask.bmp,041117,13:44:24,5.0.6.0,18,whitedirect,6,17,520,plus1,0,w06.bmp,Judgedirect,blacksquare2.gif,pic108.bmp,Mask.bmp,041117,13:44:24,5.0.6.0,18,blackdirect,6,18,780,minus1,0,b04.bmp,Judgedirect,blacksquare2.gif,pic107.bmp,Mask.bmp,041117,13:44:24,5.0.6.0,18,whitedirect,6,19,942,minus1,0,w07.bmp,Judgedirect,blacksquare2.gif,pic81.bmp,Mask.bmp,041117,13:44:24,5.0.6.0,18,blackdirect,6,20,1122,minus1,0,b09.bmp,Judgedirect,blacksquare2.gif,pic115.bmp,Mask.bmp,041117,13:44:24,5.0.6.0,18,whitedirect,6,21,1222,minus1,0,w01.bmp,Judgedirect,blacksquare2.gif,pic79.bmp,Mask.bmp,041117,13:44:24,5.0.6.0,18,blackdirect,6,22,838,minus1,0,b06.bmp,Judgedirect,blacksquare2.gif,pic113.bmp,Mask.bmp,041117,13:44:24,5.0.6.0,18,whitedirect,6,23,997,minus1,0,w09.bmp,Judgedirect,blacksquare2.gif,pic117.bmp,Mask.bmp,041117,13:44:24,5.0.6.0,18,blackdirect,6,24,967,minus1,0,b05.bmp,Judgedirect,blacksquare2.gif,pic106.bmp,Mask.bmp,041117,13:44:24,5.0.6.0,18,gender,7,1,6218,1,1,0,demo,0,0,0,041117,13:44:24,5.0.6.0,18,age,7,1,6218,23,1,0,demo,0,0,0,041117,13:44:24,5.0.6.0,18,ethnicity,7,1,6218,Asian-American,1,0,demo,0,0,0,041117,14:03:31,5.0.6.0,21,practice,1,1,30382,57,1,sample.bmp,orient1,blacksquare2.gif,pic76.bmp,Mask.bmp,041117,14:03:31,5.0.6.0,21,whitedirect,4,1,6412,plus1,0,w01.bmp,Judgedirect,blacksquare2.gif,pic106.bmp,Mask.bmp,041117,14:03:31,5.0.6.0,21,blackdirect,4,2,2390,plus1,0,b07.bmp,Judgedirect,blacksquare2.gif,pic108.bmp,Mask.bmp,041117,14:03:31,5.0.6.0,21,whitedirect,4,3,1879,plus1,0,w02.bmp,Judgedirect,blacksquare2.gif,pic113.bmp,Mask.bmp,041117,14:03:31,5.0.6.0,21,blackdirect,4,4,1229,plus2,0,b09.bmp,Judgedirect,blacksquare2.gif,pic79.bmp,Mask.bmp,041117,14:03:31,5.0.6.0,21,whitedirect,4,5,1245,plus2,0,w06.bmp,Judgedirect,blacksquare2.gif,pic110.bmp,Mask.bmp,041117,14:03:31,5.0.6.0,21,blackdirect,4,6,1661,plus1,0,b11.bmp,Judgedirect,blacksquare2.gif,pic81.bmp,Mask.bmp,041117,14:03:31,5.0.6.0,21,whitedirect,4,7,1876,minus1,0,w07.bmp,Judgedirect,blacksquare2.gif,pic118.bmp,Mask.bmp,041117,14:03:31,5.0.6.0,21,blackdirect,4,8,1082,plus1,0,b03.bmp,Judgedirect,blacksquare2.gif,pic104.bmp,Mask.bmp,041117,14:03:31,5.0.6.0,21,whitedirect,4,9,1063,minus1,0,w04.bmp,Judgedirect,blacksquare2.gif,pic114.bmp,Mask.bmp,041117,14:03:31,5.0.6.0,21,blackdirect,4,10,2854,plus1,0,b04.bmp,Judgedirect,blacksquare2.gif,pic112.bmp,Mask.bmp,041117,14:03:31,5.0.6.0,21,whitedirect,4,11,2253,minus1,0,b10.jpg,Judgedirect,blacksquare2.gif,pic102.bmp,Mask.bmp,041117,14:03:31,5.0.6.0,21,blackdirect,4,12,1620,minus1,0,b10.bmp,Judgedirect,blacksquare2.gif,pic103.bmp,Mask.bmp,041117,14:03:31,5.0.6.0,21,whitedirect,4,13,1020,plus1,0,b12.jpg,Judgedirect,blacksquare2.gif,pic116.bmp,Mask.bmp,041117,14:03:31,5.0.6.0,21,blackdirect,4,14,1580,plus2,0,b01.bmp,Judgedirect,blacksquare2.gif,pic107.bmp,Mask.bmp,041117,14:03:31,5.0.6.0,21,whitedirect,4,15,1982,plus1,0,w05.bmp,Judgedirect,blacksquare2.gif,pic109.bmp,Mask.bmp,041117,14:03:31,5.0.6.0,21,blackdirect,4,16,1199,plus1,0,b08.bmp,Judgedirect,blacksquare2.gif,pic82.bmp,Mask.bmp,041117,14:03:31,5.0.6.0,21,whitedirect,4,17,2168,plus1,0,b11.jpg,Judgedirect,blacksquare2.gif,pic115.bmp,Mask.bmp,041117,14:03:31,5.0.6.0,21,blackdirect,4,18,1322,minus1,0,b02.bmp,Judgedirect,blacksquare2.gif,pic111.bmp,Mask.bmp,041117,14:03:31,5.0.6.0,21,whitedirect,4,19,1439,plus1,0,w09.bmp,Judgedirect,blacksquare2.gif,pic117.bmp,Mask.bmp,041117,14:03:31,5.0.6.0,21,blackdirect,4,20,2054,plus1,0,b05.bmp,Judgedirect,blacksquare2.gif,pic78.bmp,Mask.bmp,041117,14:03:31,5.0.6.0,21,whitedirect,4,21,1069,minus1,0,w03.bmp,Judgedirect,blacksquare2.gif,pic105.bmp,Mask.bmp,041117,14:03:31,5.0.6.0,21,blackdirect,4,22,1083,plus1,0,b06.bmp,Judgedirect,blacksquare2.gif,pic100.bmp,Mask.bmp,041117,14:03:31,5.0.6.0,21,whitedirect,4,23,1384,plus1,0,w08.bmp,Judgedirect,blacksquare2.gif,pic101.bmp,Mask.bmp,041117,14:03:31,5.0.6.0,21,blackdirect,4,24,4122,plus1,0,b12.bmp,Judgedirect,blacksquare2.gif,pic80.bmp,Mask.bmp,041117,14:03:31,5.0.6.0,21,neutral,6,1,2513,plus1,0,GREY.bmp,Judgeindirect,blacksquare2.gif,pic73.bmp,Mask.bmp,041117,14:03:31,5.0.6.0,21,neutral,6,2,1846,plus1,0,GREY.bmp,Judgeindirect,blacksquare2.gif,pic16.bmp,Mask.bmp,041117,14:03:31,5.0.6.0,21,neutral,6,3,2141,plus1,0,GREY.bmp,Judgeindirect,blacksquare2.gif,pic70.bmp,Mask.bmp,041117,14:03:31,5.0.6.0,21,neutral,6,4,1489,minus1,0,GREY.bmp,Judgeindirect,blacksquare2.gif,pic32.bmp,Mask.bmp,041117,14:03:31,5.0.6.0,21,blackindirect,6,5,2334,plus1,0,b06.bmp,Judgeindirect,blacksquare2.gif,pic54.bmp,Mask.bmp,041117,14:03:31,5.0.6.0,21,whiteindirect,6,6,2242,plus2,0,w08.bmp,Judgeindirect,blacksquare2.gif,pic72.bmp,Mask.bmp,041117,14:03:31,5.0.6.0,21,blackindirect,6,7,1641,plus1,0,b01.bmp,Judgeindirect,blacksquare2.gif,pic51.bmp,Mask.bmp,041117,14:03:31,5.0.6.0,21,neutral,6,8,1681,plus1,0,GREY.bmp,Judgeindirect,blacksquare2.gif,pic17.bmp,Mask.bmp,041117,14:03:31,5.0.6.0,21,neutral,6,9,1215,plus2,0,GREY.bmp,Judgeindirect,blacksquare2.gif,pic19.bmp,Mask.bmp,041117,14:03:31,5.0.6.0,21,blackindirect,6,10,2823,plus2,0,b07.bmp,Judgeindirect,blacksquare2.gif,pic14.bmp,Mask.bmp,041117,14:03:31,5.0.6.0,21,blackindirect,6,11,1391,plus1,0,b10.bmp,Judgeindirect,blacksquare2.gif,pic64.bmp,Mask.bmp,041117,14:03:31,5.0.6.0,21,whiteindirect,6,12,2817,plus1,0,b12.jpg,Judgeindirect,blacksquare2.gif,pic10.bmp,Mask.bmp,041117,14:03:31,5.0.6.0,21,neutral,6,13,2113,minus1,0,GREY.bmp,Judgeindirect,blacksquare2.gif,pic9.bmp,Mask.bmp,041117,14:03:31,5.0.6.0,21,whiteindirect,6,14,1446,plus1,0,w02.bmp,Judgeindirect,blacksquare2.gif,pic21.bmp,Mask.bmp,041117,14:03:31,5.0.6.0,21,whiteindirect,6,15,1877,plus2,0,w01.bmp,Judgeindirect,blacksquare2.gif,pic26.bmp,Mask.bmp,041117,14:03:31,5.0.6.0,21,neutral,6,16,1827,plus1,0,GREY.bmp,Judgeindirect,blacksquare2.gif,pic39.bmp,Mask.bmp,041117,14:03:31,5.0.6.0,21,whiteindirect,6,17,1436,minus1,0,w07.bmp,Judgeindirect,blacksquare2.gif,pic62.bmp,Mask.bmp,041117,14:03:31,5.0.6.0,21,blackindirect,6,18,1683,plus1,0,b08.bmp,Judgeindirect,blacksquare2.gif,pic33.bmp,Mask.bmp,041117,14:03:31,5.0.6.0,21,neutral,6,19,2537,minus1,0,GREY.bmp,Judgeindirect,blacksquare2.gif,pic27.bmp,Mask.bmp,041117,14:03:31,5.0.6.0,21,whiteindirect,6,20,1188,plus2,0,b11.jpg,Judgeindirect,blacksquare2.gif,pic53.bmp,Mask.bmp,041117,14:03:31,5.0.6.0,21,blackindirect,6,21,1286,plus1,0,b05.bmp,Judgeindirect,blacksquare2.gif,pic22.bmp,Mask.bmp,041117,14:03:31,5.0.6.0,21,blackindirect,6,22,1291,plus1,0,b04.bmp,Judgeindirect,blacksquare2.gif,pic38.bmp,Mask.bmp,041117,14:03:31,5.0.6.0,21,blackindirect,6,23,2368,plus2,0,b09.bmp,Judgeindirect,blacksquare2.gif,pic58.bmp,Mask.bmp,041117,14:03:31,5.0.6.0,21,blackindirect,6,24,4226,minus1,0,b12.bmp,Judgeindirect,blacksquare2.gif,pic60.bmp,Mask.bmp,041117,14:03:31,5.0.6.0,21,whiteindirect,6,25,1475,minus1,0,w05.bmp,Judgeindirect,blacksquare2.gif,pic40.bmp,Mask.bmp,041117,14:03:31,5.0.6.0,21,whiteindirect,6,26,1681,plus1,0,w09.bmp,Judgeindirect,blacksquare2.gif,pic1.bmp,Mask.bmp,041117,14:03:31,5.0.6.0,21,neutral,6,27,2159,plus2,0,GREY.bmp,Judgeindirect,blacksquare2.gif,pic34.bmp,Mask.bmp,041117,14:03:31,5.0.6.0,21,neutral,6,28,2554,minus1,0,GREY.bmp,Judgeindirect,blacksquare2.gif,pic47.bmp,Mask.bmp,041117,14:03:31,5.0.6.0,21,neutral,6,29,1125,minus1,0,GREY.bmp,Judgeindirect,blacksquare2.gif,pic18.bmp,Mask.bmp,041117,14:03:31,5.0.6.0,21,blackindirect,6,30,1193,plus1,0,b11.bmp,Judgeindirect,blacksquare2.gif,pic71.bmp,Mask.bmp,041117,14:03:31,5.0.6.0,21,neutral,6,31,1002,plus2,0,GREY.bmp,Judgeindirect,blacksquare2.gif,pic30.bmp,Mask.bmp,041117,14:03:31,5.0.6.0,21,whiteindirect,6,32,835,plus2,0,w03.bmp,Judgeindirect,blacksquare2.gif,pic36.bmp,Mask.bmp,041117,14:03:31,5.0.6.0,21,whiteindirect,6,33,1282,plus1,0,w06.bmp,Judgeindirect,blacksquare2.gif,pic8.bmp,Mask.bmp,041117,14:03:31,5.0.6.0,21,neutral,6,34,1080,minus1,0,GREY.bmp,Judgeindirect,blacksquare2.gif,pic20.bmp,Mask.bmp,041117,14:03:31,5.0.6.0,21,blackindirect,6,35,1550,plus1,0,b02.bmp,Judgeindirect,blacksquare2.gif,pic52.bmp,Mask.bmp,041117,14:03:31,5.0.6.0,21,neutral,6,36,1505,plus1,0,GREY.bmp,Judgeindirect,blacksquare2.gif,pic63.bmp,Mask.bmp,041117,14:03:31,5.0.6.0,21,whiteindirect,6,37,1798,plus2,0,b10.jpg,Judgeindirect,blacksquare2.gif,pic23.bmp,Mask.bmp,041117,14:03:31,5.0.6.0,21,neutral,6,38,1623,plus1,0,GREY.bmp,Judgeindirect,blacksquare2.gif,pic55.bmp,Mask.bmp,041117,14:03:31,5.0.6.0,21,whiteindirect,6,39,2023,minus1,0,w04.bmp,Judgeindirect,blacksquare2.gif,pic75.bmp,Mask.bmp,041117,14:03:31,5.0.6.0,21,neutral,6,40,1615,minus1,0,GREY.bmp,Judgeindirect,blacksquare2.gif,pic28.bmp,Mask.bmp,041117,14:03:31,5.0.6.0,21,blackindirect,6,41,1575,plus1,0,b03.bmp,Judgeindirect,blacksquare2.gif,pic66.bmp,Mask.bmp,041117,14:03:31,5.0.6.0,21,blackindirect,6,42,3137,minus1,0,b02.bmp,Judgeindirect,blacksquare2.gif,pic29.bmp,Mask.bmp,041117,14:03:31,5.0.6.0,21,blackindirect,6,43,2141,plus1,0,b11.bmp,Judgeindirect,blacksquare2.gif,pic31.bmp,Mask.bmp,041117,14:03:31,5.0.6.0,21,whiteindirect,6,44,4520,plus1,0,b12.jpg,Judgeindirect,blacksquare2.gif,pic5.bmp,Mask.bmp,041117,14:03:31,5.0.6.0,21,neutral,6,45,1245,plus1,0,GREY.bmp,Judgeindirect,blacksquare2.gif,pic25.bmp,Mask.bmp,041117,14:03:31,5.0.6.0,21,whiteindirect,6,46,2036,minus1,0,w04.bmp,Judgeindirect,blacksquare2.gif,pic68.bmp,Mask.bmp,041117,14:03:31,5.0.6.0,21,blackindirect,6,47,1300,plus2,0,b10.bmp,Judgeindirect,blacksquare2.gif,pic57.bmp,Mask.bmp,041117,14:03:31,5.0.6.0,21,neutral,6,48,1089,plus1,0,GREY.bmp,Judgeindirect,blacksquare2.gif,pic12.bmp,Mask.bmp,041117,14:03:31,5.0.6.0,21,whiteindirect,6,49,1478,plus2,0,w07.bmp,Judgeindirect,blacksquare2.gif,pic2.bmp,Mask.bmp,041117,14:03:31,5.0.6.0,21,whiteindirect,6,50,1804,plus1,0,w09.bmp,Judgeindirect,blacksquare2.gif,pic41.bmp,Mask.bmp,041117,14:03:31,5.0.6.0,21,whiteindirect,6,51,1181,plus2,0,w01.bmp,Judgeindirect,blacksquare2.gif,pic46.bmp,Mask.bmp,041117,14:03:31,5.0.6.0,21,neutral,6,52,1103,plus1,0,GREY.bmp,Judgeindirect,blacksquare2.gif,pic3.bmp,Mask.bmp,041117,14:03:31,5.0.6.0,21,whiteindirect,6,53,1044,plus2,0,w02.bmp,Judgeindirect,blacksquare2.gif,pic11.bmp,Mask.bmp,041117,14:03:31,5.0.6.0,21,neutral,6,54,1051,plus2,0,GREY.bmp,Judgeindirect,blacksquare2.gif,pic74.bmp,Mask.bmp,041117,14:03:31,5.0.6.0,21,blackindirect,6,55,1170,minus1,0,b03.bmp,Judgeindirect,blacksquare2.gif,pic61.bmp,Mask.bmp,041117,14:03:31,5.0.6.0,21,blackindirect,6,56,884,plus1,0,b01.bmp,Judgeindirect,blacksquare2.gif,pic6.bmp,Mask.bmp,041117,14:03:31,5.0.6.0,21,blackindirect,6,57,922,plus1,0,b06.bmp,Judgeindirect,blacksquare2.gif,pic48.bmp,Mask.bmp,041117,14:03:31,5.0.6.0,21,whiteindirect,6,58,1422,plus2,0,b10.jpg,Judgeindirect,blacksquare2.gif,pic56.bmp,Mask.bmp,041117,14:03:31,5.0.6.0,21,blackindirect,6,59,1062,plus1,0,b08.bmp,Judgeindirect,blacksquare2.gif,pic43.bmp,Mask.bmp,041117,14:03:31,5.0.6.0,21,blackindirect,6,60,957,plus1,0,b04.bmp,Judgeindirect,blacksquare2.gif,pic65.bmp,Mask.bmp,041117,14:03:31,5.0.6.0,21,blackindirect,6,61,1367,plus2,0,b05.bmp,Judgeindirect,blacksquare2.gif,pic49.bmp,Mask.bmp,041117,14:03:31,5.0.6.0,21,whiteindirect,6,62,1121,plus2,0,w06.bmp,Judgeindirect,blacksquare2.gif,pic24.bmp,Mask.bmp,041117,14:03:31,5.0.6.0,21,neutral,6,63,2157,plus1,0,GREY.bmp,Judgeindirect,blacksquare2.gif,pic50.bmp,Mask.bmp,041117,14:03:31,5.0.6.0,21,neutral,6,64,912,plus1,0,GREY.bmp,Judgeindirect,blacksquare2.gif,pic45.bmp,Mask.bmp,041117,14:03:31,5.0.6.0,21,whiteindirect,6,65,1253,plus1,0,b11.jpg,Judgeindirect,blacksquare2.gif,pic44.bmp,Mask.bmp,041117,14:03:31,5.0.6.0,21,blackindirect,6,66,1468,plus1,0,b09.bmp,Judgeindirect,blacksquare2.gif,pic15.bmp,Mask.bmp,041117,14:03:31,5.0.6.0,21,blackindirect,6,67,1570,plus2,0,b07.bmp,Judgeindirect,blacksquare2.gif,pic42.bmp,Mask.bmp,041117,14:03:31,5.0.6.0,21,whiteindirect,6,68,1348,plus1,0,w03.bmp,Judgeindirect,blacksquare2.gif,pic13.bmp,Mask.bmp,041117,14:03:31,5.0.6.0,21,whiteindirect,6,69,959,plus1,0,w05.bmp,Judgeindirect,blacksquare2.gif,pic59.bmp,Mask.bmp,041117,14:03:31,5.0.6.0,21,blackindirect,6,70,2042,plus1,0,b12.bmp,Judgeindirect,blacksquare2.gif,pic69.bmp,Mask.bmp,041117,14:03:31,5.0.6.0,21,whiteindirect,6,71,1441,minus1,0,w08.bmp,Judgeindirect,blacksquare2.gif,pic67.bmp,Mask.bmp,041117,14:03:31,5.0.6.0,21,neutral,6,72,1201,minus1,0,GREY.bmp,Judgeindirect,blacksquare2.gif,pic4.bmp,Mask.bmp,041117,14:03:31,5.0.6.0,21,gender,7,1,11741,1,1,0,demo,0,0,0,041117,14:03:31,5.0.6.0,21,age,7,1,11741,18,1,0,demo,0,0,0,041117,14:03:31,5.0.6.0,21,ethnicity,7,1,11741,African-American,1,0,demo,0,0,0,041217,11:57:14,5.0.6.0,24,practice,1,1,3472,57,1,sample.bmp,orient1,blacksquare2.gif,pic76.bmp,Mask.bmp,041217,11:57:14,5.0.6.0,24,blackdirect,4,1,4188,minus1,0,b09.bmp,Judgedirect,blacksquare2.gif,pic103.bmp,Mask.bmp,041217,11:57:14,5.0.6.0,24,whitedirect,4,2,2887,minus1,0,w06.bmp,Judgedirect,blacksquare2.gif,pic80.bmp,Mask.bmp,041217,11:57:14,5.0.6.0,24,blackdirect,4,3,1092,minus1,0,b06.bmp,Judgedirect,blacksquare2.gif,pic79.bmp,Mask.bmp,041217,11:57:14,5.0.6.0,24,whitedirect,4,4,1050,minus1,0,b10.jpg,Judgedirect,blacksquare2.gif,pic104.bmp,Mask.bmp,041217,11:57:14,5.0.6.0,24,blackdirect,4,5,3033,minus1,0,b10.bmp,Judgedirect,blacksquare2.gif,pic101.bmp,Mask.bmp,041217,11:57:14,5.0.6.0,24,whitedirect,4,6,5472,minus1,0,w01.bmp,Judgedirect,blacksquare2.gif,pic112.bmp,Mask.bmp,041217,11:57:14,5.0.6.0,24,blackdirect,4,7,1406,plus1,0,b08.bmp,Judgedirect,blacksquare2.gif,pic117.bmp,Mask.bmp,041217,11:57:14,5.0.6.0,24,whitedirect,4,8,623,plus1,0,w07.bmp,Judgedirect,blacksquare2.gif,pic115.bmp,Mask.bmp,041217,11:57:14,5.0.6.0,24,blackdirect,4,9,1569,minus1,0,b05.bmp,Judgedirect,blacksquare2.gif,pic110.bmp,Mask.bmp,041217,11:57:14,5.0.6.0,24,whitedirect,4,10,3337,plus1,0,w05.bmp,Judgedirect,blacksquare2.gif,pic108.bmp,Mask.bmp,041217,11:57:14,5.0.6.0,24,blackdirect,4,11,1477,minus2,0,b11.bmp,Judgedirect,blacksquare2.gif,pic78.bmp,Mask.bmp,041217,11:57:14,5.0.6.0,24,whitedirect,4,12,1251,minus2,0,w02.bmp,Judgedirect,blacksquare2.gif,pic116.bmp,Mask.bmp,041217,11:57:14,5.0.6.0,24,blackdirect,4,13,2098,minus1,0,b12.bmp,Judgedirect,blacksquare2.gif,pic111.bmp,Mask.bmp,041217,11:57:14,5.0.6.0,24,whitedirect,4,14,2279,plus1,0,w08.bmp,Judgedirect,blacksquare2.gif,pic82.bmp,Mask.bmp,041217,11:57:14,5.0.6.0,24,blackdirect,4,15,1102,minus1,0,b04.bmp,Judgedirect,blacksquare2.gif,pic118.bmp,Mask.bmp,041217,11:57:14,5.0.6.0,24,whitedirect,4,16,1018,minus1,0,w09.bmp,Judgedirect,blacksquare2.gif,pic100.bmp,Mask.bmp,041217,11:57:14,5.0.6.0,24,blackdirect,4,17,834,minus1,0,b07.bmp,Judgedirect,blacksquare2.gif,pic81.bmp,Mask.bmp,041217,11:57:14,5.0.6.0,24,whitedirect,4,18,514,minus1,0,b11.jpg,Judgedirect,blacksquare2.gif,pic102.bmp,Mask.bmp,041217,11:57:14,5.0.6.0,24,blackdirect,4,19,663,minus1,0,b01.bmp,Judgedirect,blacksquare2.gif,pic114.bmp,Mask.bmp,041217,11:57:14,5.0.6.0,24,whitedirect,4,20,2973,minus1,0,b12.jpg,Judgedirect,blacksquare2.gif,pic105.bmp,Mask.bmp,041217,11:57:14,5.0.6.0,24,blackdirect,4,21,759,minus1,0,b02.bmp,Judgedirect,blacksquare2.gif,pic107.bmp,Mask.bmp,041217,11:57:14,5.0.6.0,24,whitedirect,4,22,2257,minus2,0,w04.bmp,Judgedirect,blacksquare2.gif,pic113.bmp,Mask.bmp,041217,11:57:14,5.0.6.0,24,blackdirect,4,23,1577,plus2,0,b03.bmp,Judgedirect,blacksquare2.gif,pic109.bmp,Mask.bmp,041217,11:57:14,5.0.6.0,24,whitedirect,4,24,2363,plus1,0,w03.bmp,Judgedirect,blacksquare2.gif,pic106.bmp,Mask.bmp,041217,11:57:14,5.0.6.0,24,whiteindirect,6,1,3355,plus1,0,w02.bmp,Judgeindirect,blacksquare2.gif,pic9.bmp,Mask.bmp,041217,11:57:14,5.0.6.0,24,neutral,6,2,1206,minus1,0,GREY.bmp,Judgeindirect,blacksquare2.gif,pic16.bmp,Mask.bmp,041217,11:57:14,5.0.6.0,24,blackindirect,6,3,3070,minus1,0,b07.bmp,Judgeindirect,blacksquare2.gif,pic19.bmp,Mask.bmp,041217,11:57:14,5.0.6.0,24,whiteindirect,6,4,2644,plus1,0,w05.bmp,Judgeindirect,blacksquare2.gif,pic6.bmp,Mask.bmp,041217,11:57:14,5.0.6.0,24,whiteindirect,6,5,1244,plus2,0,b12.jpg,Judgeindirect,blacksquare2.gif,pic54.bmp,Mask.bmp,041217,11:57:14,5.0.6.0,24,neutral,6,6,1867,plus1,0,GREY.bmp,Judgeindirect,blacksquare2.gif,pic25.bmp,Mask.bmp,041217,11:57:14,5.0.6.0,24,blackindirect,6,7,3026,plus1,0,b12.bmp,Judgeindirect,blacksquare2.gif,pic73.bmp,Mask.bmp,041217,11:57:14,5.0.6.0,24,whiteindirect,6,8,1034,minus1,0,w01.bmp,Judgeindirect,blacksquare2.gif,pic45.bmp,Mask.bmp,041217,11:57:14,5.0.6.0,24,blackindirect,6,9,1409,plus1,0,b09.bmp,Judgeindirect,blacksquare2.gif,pic52.bmp,Mask.bmp,041217,11:57:14,5.0.6.0,24,blackindirect,6,10,1754,plus2,0,b03.bmp,Judgeindirect,blacksquare2.gif,pic61.bmp,Mask.bmp,041217,11:57:14,5.0.6.0,24,neutral,6,11,2021,minus1,0,GREY.bmp,Judgeindirect,blacksquare2.gif,pic53.bmp,Mask.bmp,041217,11:57:14,5.0.6.0,24,blackindirect,6,12,1981,plus1,0,b08.bmp,Judgeindirect,blacksquare2.gif,pic28.bmp,Mask.bmp,041217,11:57:14,5.0.6.0,24,blackindirect,6,13,1047,plus1,0,b02.bmp,Judgeindirect,blacksquare2.gif,pic14.bmp,Mask.bmp,041217,11:57:14,5.0.6.0,24,whiteindirect,6,14,710,plus1,0,w03.bmp,Judgeindirect,blacksquare2.gif,pic65.bmp,Mask.bmp,041217,11:57:14,5.0.6.0,24,neutral,6,15,906,plus1,0,GREY.bmp,Judgeindirect,blacksquare2.gif,pic69.bmp,Mask.bmp,041217,11:57:14,5.0.6.0,24,blackindirect,6,16,783,plus1,0,b01.bmp,Judgeindirect,blacksquare2.gif,pic48.bmp,Mask.bmp,041217,11:57:14,5.0.6.0,24,blackindirect,6,17,1345,plus1,0,b04.bmp,Judgeindirect,blacksquare2.gif,pic8.bmp,Mask.bmp,041217,11:57:14,5.0.6.0,24,neutral,6,18,1172,plus1,0,GREY.bmp,Judgeindirect,blacksquare2.gif,pic41.bmp,Mask.bmp,041217,11:57:14,5.0.6.0,24,whiteindirect,6,19,1182,minus1,0,w08.bmp,Judgeindirect,blacksquare2.gif,pic72.bmp,Mask.bmp,041217,11:57:14,5.0.6.0,24,neutral,6,20,1592,minus1,0,GREY.bmp,Judgeindirect,blacksquare2.gif,pic62.bmp,Mask.bmp,041217,11:57:14,5.0.6.0,24,blackindirect,6,21,1169,minus2,0,b05.bmp,Judgeindirect,blacksquare2.gif,pic42.bmp,Mask.bmp,041217,11:57:14,5.0.6.0,24,whiteindirect,6,22,1139,plus1,0,w06.bmp,Judgeindirect,blacksquare2.gif,pic31.bmp,Mask.bmp,041217,11:57:14,5.0.6.0,24,neutral,6,23,1367,minus1,0,GREY.bmp,Judgeindirect,blacksquare2.gif,pic15.bmp,Mask.bmp,041217,11:57:14,5.0.6.0,24,whiteindirect,6,24,1057,plus1,0,w04.bmp,Judgeindirect,blacksquare2.gif,pic3.bmp,Mask.bmp,041217,11:57:14,5.0.6.0,24,whiteindirect,6,25,1376,plus1,0,w09.bmp,Judgeindirect,blacksquare2.gif,pic71.bmp,Mask.bmp,041217,11:57:14,5.0.6.0,24,neutral,6,26,2202,minus1,0,GREY.bmp,Judgeindirect,blacksquare2.gif,pic68.bmp,Mask.bmp,041217,11:57:14,5.0.6.0,24,neutral,6,27,1659,plus2,0,GREY.bmp,Judgeindirect,blacksquare2.gif,pic29.bmp,Mask.bmp,041217,11:57:14,5.0.6.0,24,neutral,6,28,913,plus1,0,GREY.bmp,Judgeindirect,blacksquare2.gif,pic60.bmp,Mask.bmp,041217,11:57:14,5.0.6.0,24,blackindirect,6,29,1134,plus1,0,b06.bmp,Judgeindirect,blacksquare2.gif,pic30.bmp,Mask.bmp,041217,11:57:14,5.0.6.0,24,whiteindirect,6,30,866,minus1,0,w07.bmp,Judgeindirect,blacksquare2.gif,pic67.bmp,Mask.bmp,041217,11:57:14,5.0.6.0,24,blackindirect,6,31,1368,plus1,0,b11.bmp,Judgeindirect,blacksquare2.gif,pic36.bmp,Mask.bmp,041217,11:57:14,5.0.6.0,24,neutral,6,32,786,plus1,0,GREY.bmp,Judgeindirect,blacksquare2.gif,pic75.bmp,Mask.bmp,041217,11:57:14,5.0.6.0,24,blackindirect,6,33,739,plus1,0,b10.bmp,Judgeindirect,blacksquare2.gif,pic32.bmp,Mask.bmp,041217,11:57:14,5.0.6.0,24,neutral,6,34,1343,plus2,0,GREY.bmp,Judgeindirect,blacksquare2.gif,pic74.bmp,Mask.bmp,041217,11:57:14,5.0.6.0,24,whiteindirect,6,35,1154,plus1,0,b10.jpg,Judgeindirect,blacksquare2.gif,pic40.bmp,Mask.bmp,041217,11:57:14,5.0.6.0,24,whiteindirect,6,36,685,plus1,0,b11.jpg,Judgeindirect,blacksquare2.gif,pic50.bmp,Mask.bmp,041217,11:57:14,5.0.6.0,24,neutral,6,37,2610,minus1,0,GREY.bmp,Judgeindirect,blacksquare2.gif,pic64.bmp,Mask.bmp,041217,11:57:14,5.0.6.0,24,whiteindirect,6,38,898,minus1,0,w06.bmp,Judgeindirect,blacksquare2.gif,pic59.bmp,Mask.bmp,041217,11:57:14,5.0.6.0,24,whiteindirect,6,39,608,minus1,0,w02.bmp,Judgeindirect,blacksquare2.gif,pic24.bmp,Mask.bmp,041217,11:57:14,5.0.6.0,24,neutral,6,40,601,minus1,0,GREY.bmp,Judgeindirect,blacksquare2.gif,pic13.bmp,Mask.bmp,041217,11:57:14,5.0.6.0,24,whiteindirect,6,41,2401,minus1,0,w01.bmp,Judgeindirect,blacksquare2.gif,pic33.bmp,Mask.bmp,041217,11:57:14,5.0.6.0,24,blackindirect,6,42,1666,plus1,0,b03.bmp,Judgeindirect,blacksquare2.gif,pic66.bmp,Mask.bmp,041217,11:57:14,5.0.6.0,24,whiteindirect,6,43,1153,minus1,0,w03.bmp,Judgeindirect,blacksquare2.gif,pic1.bmp,Mask.bmp,041217,11:57:14,5.0.6.0,24,neutral,6,44,1794,minus2,0,GREY.bmp,Judgeindirect,blacksquare2.gif,pic70.bmp,Mask.bmp,041217,11:57:14,5.0.6.0,24,whiteindirect,6,45,1301,minus1,0,w08.bmp,Judgeindirect,blacksquare2.gif,pic58.bmp,Mask.bmp,041217,11:57:14,5.0.6.0,24,whiteindirect,6,46,1561,plus1,0,b10.jpg,Judgeindirect,blacksquare2.gif,pic44.bmp,Mask.bmp,041217,11:57:14,5.0.6.0,24,whiteindirect,6,47,1884,plus1,0,b11.jpg,Judgeindirect,blacksquare2.gif,pic55.bmp,Mask.bmp,041217,11:57:14,5.0.6.0,24,blackindirect,6,48,2162,plus1,0,b07.bmp,Judgeindirect,blacksquare2.gif,pic51.bmp,Mask.bmp,041217,11:57:14,5.0.6.0,24,blackindirect,6,49,1252,plus2,0,b02.bmp,Judgeindirect,blacksquare2.gif,pic18.bmp,Mask.bmp,041217,11:57:14,5.0.6.0,24,blackindirect,6,50,1371,minus1,0,b09.bmp,Judgeindirect,blacksquare2.gif,pic20.bmp,Mask.bmp,0