date,time,build,subject,trialcode,blocknum,trialnum,latency,response,correct,stimulus1,blockcode,stimulusitem2,stimulusitem3,stimulusitem4,stimulusitem522117,20:05:43,5.0.6.0,1,practice,1,1,2270,57,1,sample.bmp,orient1,blacksquare2.gif,pic76.bmp,Mask.bmp,022117,20:05:43,5.0.6.0,1,blackdirect,4,1,5320,plus1,0,b12.bmp,Judgedirect,blacksquare2.gif,pic113.bmp,Mask.bmp,022117,20:05:43,5.0.6.0,1,whitedirect,4,2,3022,plus1,0,w09.bmp,Judgedirect,blacksquare2.gif,pic111.bmp,Mask.bmp,022117,20:05:43,5.0.6.0,1,blackdirect,4,3,2063,plus2,0,b09.bmp,Judgedirect,blacksquare2.gif,pic108.bmp,Mask.bmp,022117,20:05:43,5.0.6.0,1,whitedirect,4,4,1391,plus1,0,w05.bmp,Judgedirect,blacksquare2.gif,pic104.bmp,Mask.bmp,022117,20:05:43,5.0.6.0,1,blackdirect,4,5,1673,plus2,0,b11.bmp,Judgedirect,blacksquare2.gif,pic110.bmp,Mask.bmp,022117,20:05:43,5.0.6.0,1,whitedirect,4,6,1223,plus1,0,w08.bmp,Judgedirect,blacksquare2.gif,pic117.bmp,Mask.bmp,022117,20:05:43,5.0.6.0,1,blackdirect,4,7,3544,plus1,0,b08.bmp,Judgedirect,blacksquare2.gif,pic78.bmp,Mask.bmp,022117,20:05:43,5.0.6.0,1,whitedirect,4,8,1580,plus2,0,w06.bmp,Judgedirect,blacksquare2.gif,pic107.bmp,Mask.bmp,022117,20:05:43,5.0.6.0,1,blackdirect,4,9,1663,plus1,0,b06.bmp,Judgedirect,blacksquare2.gif,pic105.bmp,Mask.bmp,022117,20:05:43,5.0.6.0,1,whitedirect,4,10,1910,plus2,0,b11.jpg,Judgedirect,blacksquare2.gif,pic116.bmp,Mask.bmp,022117,20:05:43,5.0.6.0,1,blackdirect,4,11,1548,plus2,0,b01.bmp,Judgedirect,blacksquare2.gif,pic81.bmp,Mask.bmp,022117,20:05:43,5.0.6.0,1,whitedirect,4,12,776,plus2,0,w04.bmp,Judgedirect,blacksquare2.gif,pic115.bmp,Mask.bmp,022117,20:05:43,5.0.6.0,1,blackdirect,4,13,978,plus2,0,b03.bmp,Judgedirect,blacksquare2.gif,pic82.bmp,Mask.bmp,022117,20:05:43,5.0.6.0,1,whitedirect,4,14,909,plus2,0,w07.bmp,Judgedirect,blacksquare2.gif,pic118.bmp,Mask.bmp,022117,20:05:43,5.0.6.0,1,blackdirect,4,15,1010,plus2,0,b02.bmp,Judgedirect,blacksquare2.gif,pic109.bmp,Mask.bmp,022117,20:05:43,5.0.6.0,1,whitedirect,4,16,3939,plus2,0,b12.jpg,Judgedirect,blacksquare2.gif,pic114.bmp,Mask.bmp,022117,20:05:43,5.0.6.0,1,blackdirect,4,17,3624,plus2,0,b07.bmp,Judgedirect,blacksquare2.gif,pic101.bmp,Mask.bmp,022117,20:05:43,5.0.6.0,1,whitedirect,4,18,697,plus2,0,w01.bmp,Judgedirect,blacksquare2.gif,pic79.bmp,Mask.bmp,022117,20:05:43,5.0.6.0,1,blackdirect,4,19,495,plus2,0,b10.bmp,Judgedirect,blacksquare2.gif,pic100.bmp,Mask.bmp,022117,20:05:43,5.0.6.0,1,whitedirect,4,20,476,plus2,0,w02.bmp,Judgedirect,blacksquare2.gif,pic80.bmp,Mask.bmp,022117,20:05:43,5.0.6.0,1,blackdirect,4,21,427,plus2,0,b05.bmp,Judgedirect,blacksquare2.gif,pic103.bmp,Mask.bmp,022117,20:05:43,5.0.6.0,1,whitedirect,4,22,451,plus2,0,w03.bmp,Judgedirect,blacksquare2.gif,pic102.bmp,Mask.bmp,022117,20:05:43,5.0.6.0,1,blackdirect,4,23,378,plus2,0,b04.bmp,Judgedirect,blacksquare2.gif,pic106.bmp,Mask.bmp,022117,20:05:43,5.0.6.0,1,whitedirect,4,24,428,plus2,0,b10.jpg,Judgedirect,blacksquare2.gif,pic112.bmp,Mask.bmp,022117,20:05:43,5.0.6.0,1,whiteindirect,6,1,4785,plus1,0,w04.bmp,Judgeindirect,blacksquare2.gif,pic27.bmp,Mask.bmp,022117,20:05:43,5.0.6.0,1,blackindirect,6,2,10316,plus1,0,b02.bmp,Judgeindirect,blacksquare2.gif,pic56.bmp,Mask.bmp,022117,20:05:43,5.0.6.0,1,blackindirect,6,3,3476,plus1,0,b03.bmp,Judgeindirect,blacksquare2.gif,pic74.bmp,Mask.bmp,022117,20:05:43,5.0.6.0,1,blackindirect,6,4,1379,plus1,0,b01.bmp,Judgeindirect,blacksquare2.gif,pic19.bmp,Mask.bmp,022117,20:05:43,5.0.6.0,1,whiteindirect,6,5,3894,plus1,0,w05.bmp,Judgeindirect,blacksquare2.gif,pic37.bmp,Mask.bmp,022117,20:05:43,5.0.6.0,1,neutral,6,6,1069,plus1,0,GREY.bmp,Judgeindirect,blacksquare2.gif,pic8.bmp,Mask.bmp,022117,20:05:43,5.0.6.0,1,neutral,6,7,1755,plus1,0,GREY.bmp,Judgeindirect,blacksquare2.gif,pic66.bmp,Mask.bmp,022117,20:05:43,5.0.6.0,1,whiteindirect,6,8,1287,plus1,0,w07.bmp,Judgeindirect,blacksquare2.gif,pic20.bmp,Mask.bmp,022117,20:05:43,5.0.6.0,1,blackindirect,6,9,1156,plus1,0,b07.bmp,Judgeindirect,blacksquare2.gif,pic21.bmp,Mask.bmp,022117,20:05:43,5.0.6.0,1,whiteindirect,6,10,3792,plus1,0,w01.bmp,Judgeindirect,blacksquare2.gif,pic38.bmp,Mask.bmp,022117,20:05:43,5.0.6.0,1,whiteindirect,6,11,1258,plus1,0,w08.bmp,Judgeindirect,blacksquare2.gif,pic60.bmp,Mask.bmp,022117,20:05:43,5.0.6.0,1,neutral,6,12,1058,plus1,0,GREY.bmp,Judgeindirect,blacksquare2.gif,pic18.bmp,Mask.bmp,022117,20:05:43,5.0.6.0,1,blackindirect,6,13,1945,plus1,0,b06.bmp,Judgeindirect,blacksquare2.gif,pic25.bmp,Mask.bmp,022117,20:05:43,5.0.6.0,1,blackindirect,6,14,1525,plus1,0,b10.bmp,Judgeindirect,blacksquare2.gif,pic42.bmp,Mask.bmp,022117,20:05:43,5.0.6.0,1,whiteindirect,6,15,1313,plus1,0,w02.bmp,Judgeindirect,blacksquare2.gif,pic72.bmp,Mask.bmp,022117,20:05:43,5.0.6.0,1,blackindirect,6,16,591,plus1,0,b11.bmp,Judgeindirect,blacksquare2.gif,pic34.bmp,Mask.bmp,022117,20:05:43,5.0.6.0,1,whiteindirect,6,17,2352,plus1,0,w09.bmp,Judgeindirect,blacksquare2.gif,pic1.bmp,Mask.bmp,022117,20:05:43,5.0.6.0,1,whiteindirect,6,18,2924,plus1,0,b12.jpg,Judgeindirect,blacksquare2.gif,pic45.bmp,Mask.bmp,022117,20:05:43,5.0.6.0,1,whiteindirect,6,19,2705,plus1,0,w03.bmp,Judgeindirect,blacksquare2.gif,pic52.bmp,Mask.bmp,022117,20:05:43,5.0.6.0,1,neutral,6,20,423,plus1,0,GREY.bmp,Judgeindirect,blacksquare2.gif,pic49.bmp,Mask.bmp,022117,20:05:43,5.0.6.0,1,blackindirect,6,21,5719,plus2,0,b08.bmp,Judgeindirect,blacksquare2.gif,pic55.bmp,Mask.bmp,022117,20:05:43,5.0.6.0,1,blackindirect,6,22,381,plus2,0,b04.bmp,Judgeindirect,blacksquare2.gif,pic40.bmp,Mask.bmp,022117,20:05:43,5.0.6.0,1,neutral,6,23,975,plus2,0,GREY.bmp,Judgeindirect,blacksquare2.gif,pic59.bmp,Mask.bmp,022117,20:05:43,5.0.6.0,1,whiteindirect,6,24,1753,plus2,0,b10.jpg,Judgeindirect,blacksquare2.gif,pic70.bmp,Mask.bmp,022117,20:05:43,5.0.6.0,1,neutral,6,25,389,plus2,0,GREY.bmp,Judgeindirect,blacksquare2.gif,pic5.bmp,Mask.bmp,022117,20:05:43,5.0.6.0,1,whiteindirect,6,26,838,plus2,0,w06.bmp,Judgeindirect,blacksquare2.gif,pic61.bmp,Mask.bmp,022117,20:05:43,5.0.6.0,1,neutral,6,27,2990,plus2,0,GREY.bmp,Judgeindirect,blacksquare2.gif,pic64.bmp,Mask.bmp,022117,20:05:43,5.0.6.0,1,blackindirect,6,28,545,plus2,0,b12.bmp,Judgeindirect,blacksquare2.gif,pic75.bmp,Mask.bmp,022117,20:05:43,5.0.6.0,1,blackindirect,6,29,596,plus2,0,b09.bmp,Judgeindirect,blacksquare2.gif,pic7.bmp,Mask.bmp,022117,20:05:43,5.0.6.0,1,whiteindirect,6,30,838,plus2,0,b11.jpg,Judgeindirect,blacksquare2.gif,pic29.bmp,Mask.bmp,022117,20:05:43,5.0.6.0,1,neutral,6,31,542,plus2,0,GREY.bmp,Judgeindirect,blacksquare2.gif,pic57.bmp,Mask.bmp,022117,20:05:43,5.0.6.0,1,whiteindirect,6,32,4401,plus2,0,b10.jpg,Judgeindirect,blacksquare2.gif,pic2.bmp,Mask.bmp,022117,20:05:43,5.0.6.0,1,neutral,6,33,516,plus2,0,GREY.bmp,Judgeindirect,blacksquare2.gif,pic73.bmp,Mask.bmp,022117,20:05:43,5.0.6.0,1,whiteindirect,6,34,680,plus2,0,w01.bmp,Judgeindirect,blacksquare2.gif,pic12.bmp,Mask.bmp,022117,20:05:43,5.0.6.0,1,neutral,6,35,518,plus2,0,GREY.bmp,Judgeindirect,blacksquare2.gif,pic31.bmp,Mask.bmp,022117,20:05:43,5.0.6.0,1,whiteindirect,6,36,522,plus2,0,w02.bmp,Judgeindirect,blacksquare2.gif,pic30.bmp,Mask.bmp,022117,20:05:43,5.0.6.0,1,blackindirect,6,37,447,plus2,0,b05.bmp,Judgeindirect,blacksquare2.gif,pic65.bmp,Mask.bmp,022117,20:05:43,5.0.6.0,1,neutral,6,38,590,plus2,0,GREY.bmp,Judgeindirect,blacksquare2.gif,pic43.bmp,Mask.bmp,022117,20:05:43,5.0.6.0,1,whiteindirect,6,39,832,plus2,0,w06.bmp,Judgeindirect,blacksquare2.gif,pic13.bmp,Mask.bmp,022117,20:05:43,5.0.6.0,1,blackindirect,6,40,1744,plus2,0,b03.bmp,Judgeindirect,blacksquare2.gif,pic48.bmp,Mask.bmp,022117,20:05:43,5.0.6.0,1,whiteindirect,6,41,7260,plus2,0,w05.bmp,Judgeindirect,blacksquare2.gif,pic15.bmp,Mask.bmp,022117,20:05:43,5.0.6.0,1,whiteindirect,6,42,1373,plus2,0,w04.bmp,Judgeindirect,blacksquare2.gif,pic36.bmp,Mask.bmp,022117,20:05:43,5.0.6.0,1,whiteindirect,6,43,1024,plus2,0,w09.bmp,Judgeindirect,blacksquare2.gif,pic51.bmp,Mask.bmp,022117,20:05:43,5.0.6.0,1,neutral,6,44,1472,plus2,0,GREY.bmp,Judgeindirect,blacksquare2.gif,pic6.bmp,Mask.bmp,022117,20:05:43,5.0.6.0,1,blackindirect,6,45,679,plus2,0,b10.bmp,Judgeindirect,blacksquare2.gif,pic11.bmp,Mask.bmp,022117,20:05:43,5.0.6.0,1,neutral,6,46,1517,plus2,0,GREY.bmp,Judgeindirect,blacksquare2.gif,pic22.bmp,Mask.bmp,022117,20:05:43,5.0.6.0,1,neutral,6,47,2602,plus2,0,GREY.bmp,Judgeindirect,blacksquare2.gif,pic9.bmp,Mask.bmp,022117,20:05:43,5.0.6.0,1,neutral,6,48,3723,plus2,0,GREY.bmp,Judgeindirect,blacksquare2.gif,pic63.bmp,Mask.bmp,022117,20:05:43,5.0.6.0,1,neutral,6,49,22992,plus2,0,GREY.bmp,Judgeindirect,blacksquare2.gif,pic68.bmp,Mask.bmp,022117,20:05:43,5.0.6.0,1,blackindirect,6,50,713,plus2,0,b08.bmp,Judgeindirect,blacksquare2.gif,pic10.bmp,Mask.bmp,022117,20:05:43,5.0.6.0,1,neutral,6,51,2214,plus2,0,GREY.bmp,Judgeindirect,blacksquare2.gif,pic3.bmp,Mask.bmp,022117,20:05:43,5.0.6.0,1,whiteindirect,6,52,1903,plus2,0,w08.bmp,Judgeindirect,blacksquare2.gif,pic41.bmp,Mask.bmp,022117,20:05:43,5.0.6.0,1,neutral,6,53,765,plus2,0,GREY.bmp,Judgeindirect,blacksquare2.gif,pic4.bmp,Mask.bmp,022117,20:05:43,5.0.6.0,1,blackindirect,6,54,672,plus2,0,b01.bmp,Judgeindirect,blacksquare2.gif,pic47.bmp,Mask.bmp,022117,20:05:43,5.0.6.0,1,neutral,6,55,494,plus2,0,GREY.bmp,Judgeindirect,blacksquare2.gif,pic62.bmp,Mask.bmp,022117,20:05:43,5.0.6.0,1,whiteindirect,6,56,732,plus2,0,w07.bmp,Judgeindirect,blacksquare2.gif,pic32.bmp,Mask.bmp,022117,20:05:43,5.0.6.0,1,neutral,6,57,904,plus2,0,GREY.bmp,Judgeindirect,blacksquare2.gif,pic58.bmp,Mask.bmp,022117,20:05:43,5.0.6.0,1,blackindirect,6,58,1493,plus2,0,b11.bmp,Judgeindirect,blacksquare2.gif,pic50.bmp,Mask.bmp,022117,20:05:43,5.0.6.0,1,neutral,6,59,1451,plus2,0,GREY.bmp,Judgeindirect,blacksquare2.gif,pic71.bmp,Mask.bmp,022117,20:05:43,5.0.6.0,1,neutral,6,60,539,plus2,0,GREY.bmp,Judgeindirect,blacksquare2.gif,pic44.bmp,Mask.bmp,022117,20:05:43,5.0.6.0,1,neutral,6,61,446,plus2,0,GREY.bmp,Judgeindirect,blacksquare2.gif,pic26.bmp,Mask.bmp,022117,20:05:43,5.0.6.0,1,neutral,6,62,2702,plus2,0,GREY.bmp,Judgeindirect,blacksquare2.gif,pic67.bmp,Mask.bmp,022117,20:05:43,5.0.6.0,1,whiteindirect,6,63,1691,plus2,0,b12.jpg,Judgeindirect,blacksquare2.gif,pic46.bmp,Mask.bmp,022117,20:05:43,5.0.6.0,1,blackindirect,6,64,2457,plus2,0,b05.bmp,Judgeindirect,blacksquare2.gif,pic14.bmp,Mask.bmp,022117,20:05:43,5.0.6.0,1,blackindirect,6,65,857,plus2,0,b07.bmp,Judgeindirect,blacksquare2.gif,pic23.bmp,Mask.bmp,022117,20:05:43,5.0.6.0,1,blackindirect,6,66,536,plus2,0,b04.bmp,Judgeindirect,blacksquare2.gif,pic39.bmp,Mask.bmp,022117,20:05:43,5.0.6.0,1,blackindirect,6,67,572,plus2,0,b09.bmp,Judgeindirect,blacksquare2.gif,pic28.bmp,Mask.bmp,022117,20:05:43,5.0.6.0,1,blackindirect,6,68,3014,plus2,0,b06.bmp,Judgeindirect,blacksquare2.gif,pic69.bmp,Mask.bmp,022117,20:05:43,5.0.6.0,1,blackindirect,6,69,1304,plus2,0,b02.bmp,Judgeindirect,blacksquare2.gif,pic24.bmp,Mask.bmp,022117,20:05:43,5.0.6.0,1,blackindirect,6,70,525,plus2,0,b12.bmp,Judgeindirect,blacksquare2.gif,pic33.bmp,Mask.bmp,022117,20:05:43,5.0.6.0,1,whiteindirect,6,71,889,plus2,0,b11.jpg,Judgeindirect,blacksquare2.gif,pic16.bmp,Mask.bmp,022117,20:05:43,5.0.6.0,1,whiteindirect,6,72,703,plus2,0,w03.bmp,Judgeindirect,blacksquare2.gif,pic53.bmp,Mask.bmp,022117,20:05:43,5.0.6.0,1,gender,7,1,24804,1,1,0,demo,0,0,0,022117,20:05:43,5.0.6.0,1,age,7,1,24804,22,1,0,demo,0,0,0,022117,20:05:43,5.0.6.0,1,ethnicity,7,1,24804,"White, non-Hispanic or Latino",1,0,demo,0,0,0,022117,20:26:24,5.0.6.0,2,practice,1,1,1815,57,1,sample.bmp,orient1,blacksquare2.gif,pic76.bmp,Mask.bmp,022117,20:12:28,5.0.6.0,5,practice,1,1,1663,57,1,sample.bmp,orient1,blacksquare2.gif,pic76.bmp,Mask.bmp,022817,19:57:58,5.0.6.0,6,practice,1,1,2395,57,1,sample.bmp,orient1,blacksquare2.gif,pic76.bmp,Mask.bmp,022817,19:57:58,5.0.6.0,6,neutral,4,1,2999,plus2,0,GREY.bmp,Judgeindirect,blacksquare2.gif,pic16.bmp,Mask.bmp,022817,19:57:58,5.0.6.0,6,whiteindirect,4,2,1457,plus2,0,w02.bmp,Judgeindirect,blacksquare2.gif,pic41.bmp,Mask.bmp,022817,19:57:58,5.0.6.0,6,whiteindirect,4,3,1168,plus2,0,w01.bmp,Judgeindirect,blacksquare2.gif,pic17.bmp,Mask.bmp,022817,19:57:58,5.0.6.0,6,neutral,4,4,1123,plus2,0,GREY.bmp,Judgeindirect,blacksquare2.gif,pic63.bmp,Mask.bmp,022817,19:57:58,5.0.6.0,6,blackindirect,4,5,807,plus2,0,b05.bmp,Judgeindirect,blacksquare2.gif,pic71.bmp,Mask.bmp,022817,19:57:58,5.0.6.0,6,whiteindirect,4,6,888,plus2,0,w06.bmp,Judgeindirect,blacksquare2.gif,pic33.bmp,Mask.bmp,022817,19:57:58,5.0.6.0,6,blackindirect,4,7,502,plus2,0,b06.bmp,Judgeindirect,blacksquare2.gif,pic56.bmp,Mask.bmp,022817,19:57:58,5.0.6.0,6,neutral,4,8,419,plus2,0,GREY.bmp,Judgeindirect,blacksquare2.gif,pic55.bmp,Mask.bmp,022817,19:57:58,5.0.6.0,6,blackindirect,4,9,787,plus2,0,b07.bmp,Judgeindirect,blacksquare2.gif,pic54.bmp,Mask.bmp,022817,19:57:58,5.0.6.0,6,neutral,4,10,637,plus2,0,GREY.bmp,Judgeindirect,blacksquare2.gif,pic10.bmp,Mask.bmp,022817,19:57:58,5.0.6.0,6,whiteindirect,4,11,885,plus2,0,b11.jpg,Judgeindirect,blacksquare2.gif,pic14.bmp,Mask.bmp,022817,19:57:58,5.0.6.0,6,blackindirect,4,12,754,plus2,0,b10.bmp,Judgeindirect,blacksquare2.gif,pic15.bmp,Mask.bmp,022817,19:57:58,5.0.6.0,6,whiteindirect,4,13,645,plus2,0,w05.bmp,Judgeindirect,blacksquare2.gif,pic27.bmp,Mask.bmp,022817,19:57:58,5.0.6.0,6,whiteindirect,4,14,16365,plus2,0,b12.jpg,Judgeindirect,blacksquare2.gif,pic49.bmp,Mask.bmp,022817,19:57:58,5.0.6.0,6,whiteindirect,4,15,468,plus2,0,w07.bmp,Judgeindirect,blacksquare2.gif,pic40.bmp,Mask.bmp,022817,19:57:58,5.0.6.0,6,neutral,4,16,787,plus2,0,GREY.bmp,Judgeindirect,blacksquare2.gif,pic24.bmp,Mask.bmp,022817,19:57:58,5.0.6.0,6,neutral,4,17,797,plus2,0,GREY.bmp,Judgeindirect,blacksquare2.gif,pic43.bmp,Mask.bmp,022817,19:57:58,5.0.6.0,6,whiteindirect,4,18,574,plus2,0,w09.bmp,Judgeindirect,blacksquare2.gif,pic25.bmp,Mask.bmp,022817,19:57:58,5.0.6.0,6,neutral,4,19,417,plus2,0,GREY.bmp,Judgeindirect,blacksquare2.gif,pic72.bmp,Mask.bmp,022817,19:57:58,5.0.6.0,6,whiteindirect,4,20,497,plus2,0,b10.jpg,Judgeindirect,blacksquare2.gif,pic47.bmp,Mask.bmp,022817,19:57:58,5.0.6.0,6,blackindirect,4,21,702,plus2,0,b03.bmp,Judgeindirect,blacksquare2.gif,pic69.bmp,Mask.bmp,022817,19:57:58,5.0.6.0,6,blackindirect,4,22,571,plus2,0,b01.bmp,Judgeindirect,blacksquare2.gif,pic30.bmp,Mask.bmp,022817,19:57:58,5.0.6.0,6,whiteindirect,4,23,566,plus2,0,w04.bmp,Judgeindirect,blacksquare2.gif,pic5.bmp,Mask.bmp,022817,19:57:58,5.0.6.0,6,neutral,4,24,488,plus2,0,GREY.bmp,Judgeindirect,blacksquare2.gif,pic22.bmp,Mask.bmp,022817,19:57:58,5.0.6.0,6,neutral,4,25,526,plus2,0,GREY.bmp,Judgeindirect,blacksquare2.gif,pic73.bmp,Mask.bmp,022817,19:57:58,5.0.6.0,6,whiteindirect,4,26,514,plus2,0,w03.bmp,Judgeindirect,blacksquare2.gif,pic19.bmp,Mask.bmp,022817,19:57:58,5.0.6.0,6,neutral,4,27,551,plus2,0,GREY.bmp,Judgeindirect,blacksquare2.gif,pic18.bmp,Mask.bmp,022817,19:57:58,5.0.6.0,6,whiteindirect,4,28,602,plus2,0,w08.bmp,Judgeindirect,blacksquare2.gif,pic13.bmp,Mask.bmp,022817,19:57:58,5.0.6.0,6,blackindirect,4,29,507,plus2,0,b11.bmp,Judgeindirect,blacksquare2.gif,pic34.bmp,Mask.bmp,022817,19:57:58,5.0.6.0,6,blackindirect,4,30,416,plus2,0,b04.bmp,Judgeindirect,blacksquare2.gif,pic53.bmp,Mask.bmp,022817,19:57:58,5.0.6.0,6,blackindirect,4,31,488,plus2,0,b09.bmp,Judgeindirect,blacksquare2.gif,pic51.bmp,Mask.bmp,022817,19:57:58,5.0.6.0,6,neutral,4,32,382,plus2,0,GREY.bmp,Judgeindirect,blacksquare2.gif,pic52.bmp,Mask.bmp,022817,19:57:58,5.0.6.0,6,blackindirect,4,33,312,plus2,0,b02.bmp,Judgeindirect,blacksquare2.gif,pic65.bmp,Mask.bmp,022817,19:57:58,5.0.6.0,6,blackindirect,4,34,317,plus2,0,b12.bmp,Judgeindirect,blacksquare2.gif,pic37.bmp,Mask.bmp,022817,19:57:58,5.0.6.0,6,neutral,4,35,353,plus2,0,GREY.bmp,Judgeindirect,blacksquare2.gif,pic59.bmp,Mask.bmp,022817,19:57:58,5.0.6.0,6,neutral,4,36,444,plus2,0,GREY.bmp,Judgeindirect,blacksquare2.gif,pic3.bmp,Mask.bmp,022817,19:57:58,5.0.6.0,6,whiteindirect,4,37,396,plus2,0,b12.jpg,Judgeindirect,blacksquare2.gif,pic61.bmp,Mask.bmp,022817,19:57:58,5.0.6.0,6,blackindirect,4,38,589,plus2,0,b08.bmp,Judgeindirect,blacksquare2.gif,pic4.bmp,Mask.bmp,022817,19:57:58,5.0.6.0,6,neutral,4,39,807,plus2,0,GREY.bmp,Judgeindirect,blacksquare2.gif,pic44.bmp,Mask.bmp,022817,19:57:58,5.0.6.0,6,whiteindirect,4,40,744,plus2,0,w07.bmp,Judgeindirect,blacksquare2.gif,pic67.bmp,Mask.bmp,022817,19:57:58,5.0.6.0,6,blackindirect,4,41,532,plus2,0,b01.bmp,Judgeindirect,blacksquare2.gif,pic50.bmp,Mask.bmp,022817,19:57:58,5.0.6.0,6,neutral,4,42,2024,plus2,0,GREY.bmp,Judgeindirect,blacksquare2.gif,pic32.bmp,Mask.bmp,022817,19:57:58,5.0.6.0,6,whiteindirect,4,43,673,plus2,0,b10.jpg,Judgeindirect,blacksquare2.gif,pic42.bmp,Mask.bmp,022817,19:57:58,5.0.6.0,6,blackindirect,4,44,11359,plus2,0,b09.bmp,Judgeindirect,blacksquare2.gif,pic7.bmp,Mask.bmp,022817,19:57:58,5.0.6.0,6,blackindirect,4,45,342,plus2,0,b06.bmp,Judgeindirect,blacksquare2.gif,pic2.bmp,Mask.bmp,022817,19:57:58,5.0.6.0,6,blackindirect,4,46,681,plus2,0,b12.bmp,Judgeindirect,blacksquare2.gif,pic21.bmp,Mask.bmp,022817,19:57:58,5.0.6.0,6,neutral,4,47,776,plus2,0,GREY.bmp,Judgeindirect,blacksquare2.gif,pic68.bmp,Mask.bmp,022817,19:57:58,5.0.6.0,6,blackindirect,4,48,87640,plus2,0,b07.bmp,Judgeindirect,blacksquare2.gif,pic12.bmp,Mask.bmp,022817,19:57:58,5.0.6.0,6,whiteindirect,4,49,125,plus2,0,w01.bmp,Judgeindirect,blacksquare2.gif,pic74.bmp,Mask.bmp,022817,19:57:58,5.0.6.0,6,whiteindirect,4,50,297,plus2,0,w09.bmp,Judgeindirect,blacksquare2.gif,pic23.bmp,Mask.bmp,022817,19:57:58,5.0.6.0,6,neutral,4,51,223,plus2,0,GREY.bmp,Judgeindirect,blacksquare2.gif,pic28.bmp,Mask.bmp,022817,19:57:58,5.0.6.0,6,whiteindirect,4,52,335,plus2,0,w03.bmp,Judgeindirect,blacksquare2.gif,pic62.bmp,Mask.bmp,022817,19:57:58,5.0.6.0,6,whiteindirect,4,53,258,plus2,0,b11.jpg,Judgeindirect,blacksquare2.gif,pic29.bmp,Mask.bmp,022817,19:57:58,5.0.6.0,6,neutral,4,54,297,plus2,0,GREY.bmp,Judgeindirect,blacksquare2.gif,pic58.bmp,Mask.bmp,022817,19:57:58,5.0.6.0,6,neutral,4,55,263,plus2,0,GREY.bmp,Judgeindirect,blacksquare2.gif,pic8.bmp,Mask.bmp,022817,19:57:58,5.0.6.0,6,blackindirect,4,56,310,plus2,0,b04.bmp,Judgeindirect,blacksquare2.gif,pic31.bmp,Mask.bmp,022817,19:57:58,5.0.6.0,6,whiteindirect,4,57,347,plus2,0,w04.bmp,Judgeindirect,blacksquare2.gif,pic26.bmp,Mask.bmp,022817,19:57:58,5.0.6.0,6,blackindirect,4,58,334,plus2,0,b10.bmp,Judgeindirect,blacksquare2.gif,pic39.bmp,Mask.bmp,022817,19:57:58,5.0.6.0,6,whiteindirect,4,59,474,plus2,0,w02.bmp,Judgeindirect,blacksquare2.gif,pic38.bmp,Mask.bmp,022817,19:57:58,5.0.6.0,6,neutral,4,60,3224,plus2,0,GREY.bmp,Judgeindirect,blacksquare2.gif,pic9.bmp,Mask.bmp,022817,19:57:58,5.0.6.0,6,blackindirect,4,61,409,plus2,0,b03.bmp,Judgeindirect,blacksquare2.gif,pic75.bmp,Mask.bmp,022817,19:57:58,5.0.6.0,6,neutral,4,62,266,plus2,0,GREY.bmp,Judgeindirect,blacksquare2.gif,pic36.bmp,Mask.bmp,022817,19:57:58,5.0.6.0,6,neutral,4,63,264,plus2,0,GREY.bmp,Judgeindirect,blacksquare2.gif,pic20.bmp,Mask.bmp,022817,19:57:58,5.0.6.0,6,whiteindirect,4,64,775,plus2,0,w06.bmp,Judgeindirect,blacksquare2.gif,pic60.bmp,Mask.bmp,022817,19:57:58,5.0.6.0,6,whiteindirect,4,65,361,plus2,0,w08.bmp,Judgeindirect,blacksquare2.gif,pic6.bmp,Mask.bmp,022817,19:57:58,5.0.6.0,6,neutral,4,66,292,plus2,0,GREY.bmp,Judgeindirect,blacksquare2.gif,pic1.bmp,Mask.bmp,022817,19:57:58,5.0.6.0,6,blackindirect,4,67,290,plus2,0,b11.bmp,Judgeindirect,blacksquare2.gif,pic57.bmp,Mask.bmp,022817,19:57:58,5.0.6.0,6,whiteindirect,4,68,199,plus2,0,w05.bmp,Judgeindirect,blacksquare2.gif,pic46.bmp,Mask.bmp,022817,19:57:58,5.0.6.0,6,neutral,4,69,176,plus2,0,GREY.bmp,Judgeindirect,blacksquare2.gif,pic64.bmp,Mask.bmp,022817,19:57:58,5.0.6.0,6,blackindirect,4,70,171,plus2,0,b02.bmp,Judgeindirect,blacksquare2.gif,pic48.bmp,Mask.bmp,022817,19:57:58,5.0.6.0,6,blackindirect,4,71,173,plus2,0,b08.bmp,Judgeindirect,blacksquare2.gif,pic11.bmp,Mask.bmp,022817,19:57:58,5.0.6.0,6,blackindirect,4,72,119,plus2,0,b05.bmp,Judgeindirect,blacksquare2.gif,pic70.bmp,Mask.bmp,022817,19:57:58,5.0.6.0,6,whitedirect,6,1,812,plus2,0,b11.jpg,Judgedirect,blacksquare2.gif,pic118.bmp,Mask.bmp,022817,19:57:58,5.0.6.0,6,blackdirect,6,2,285,plus2,0,b08.bmp,Judgedirect,blacksquare2.gif,pic103.bmp,Mask.bmp,022817,19:57:58,5.0.6.0,6,whitedirect,6,3,283,plus2,0,w01.bmp,Judgedirect,blacksquare2.gif,pic82.bmp,Mask.bmp,022817,19:57:58,5.0.6.0,6,blackdirect,6,4,336,plus2,0,b07.bmp,Judgedirect,blacksquare2.gif,pic111.bmp,Mask.bmp,022817,19:57:58,5.0.6.0,6,whitedirect,6,5,260,plus2,0,w04.bmp,Judgedirect,blacksquare2.gif,pic117.bmp,Mask.bmp,022817,19:57:58,5.0.6.0,6,blackdirect,6,6,307,plus2,0,b01.bmp,Judgedirect,blacksquare2.gif,pic78.bmp,Mask.bmp,022817,19:57:58,5.0.6.0,6,whitedirect,6,7,376,plus2,0,w08.bmp,Judgedirect,blacksquare2.gif,pic114.bmp,Mask.bmp,022817,19:57:58,5.0.6.0,6,blackdirect,6,8,274,plus2,0,b03.bmp,Judgedirect,blacksquare2.gif,pic107.bmp,Mask.bmp,022817,19:57:58,5.0.6.0,6,whitedirect,6,9,344,plus2,0,w09.bmp,Judgedirect,blacksquare2.gif,pic79.bmp,Mask.bmp,022817,19:57:58,5.0.6.0,6,blackdirect,6,10,332,plus2,0,b04.bmp,Judgedirect,blacksquare2.gif,pic110.bmp,Mask.bmp,022817,19:57:58,5.0.6.0,6,whitedirect,6,11,328,plus2,0,b12.jpg,Judgedirect,blacksquare2.gif,pic113.bmp,Mask.bmp,022817,19:57:58,5.0.6.0,6,blackdirect,6,12,276,plus2,0,b11.bmp,Judgedirect,blacksquare2.gif,pic109.bmp,Mask.bmp,022817,19:57:58,5.0.6.0,6,whitedirect,6,13,306,plus2,0,w06.bmp,Judgedirect,blacksquare2.gif,pic81.bmp,Mask.bmp,022817,19:57:58,5.0.6.0,6,blackdirect,6,14,311,plus2,0,b10.bmp,Judgedirect,blacksquare2.gif,pic108.bmp,Mask.bmp,022817,19:57:58,5.0.6.0,6,whitedirect,6,15,316,plus2,0,w03.bmp,Judgedirect,blacksquare2.gif,pic106.bmp,Mask.bmp,022817,19:57:58,5.0.6.0,6,blackdirect,6,16,240,plus2,0,b09.bmp,Judgedirect,blacksquare2.gif,pic115.bmp,Mask.bmp,022817,19:57:58,5.0.6.0,6,whitedirect,6,17,312,plus2,0,w07.bmp,Judgedirect,blacksquare2.gif,pic105.bmp,Mask.bmp,022817,19:57:58,5.0.6.0,6,blackdirect,6,18,285,plus2,0,b12.bmp,Judgedirect,blacksquare2.gif,pic116.bmp,Mask.bmp,022817,19:57:58,5.0.6.0,6,whitedirect,6,19,266,plus2,0,b10.jpg,Judgedirect,blacksquare2.gif,pic104.bmp,Mask.bmp,022817,19:57:58,5.0.6.0,6,blackdirect,6,20,248,plus2,0,b02.bmp,Judgedirect,blacksquare2.gif,pic101.bmp,Mask.bmp,022817,19:57:58,5.0.6.0,6,whitedirect,6,21,296,plus2,0,w05.bmp,Judgedirect,blacksquare2.gif,pic112.bmp,Mask.bmp,022817,19:57:58,5.0.6.0,6,blackdirect,6,22,254,plus2,0,b05.bmp,Judgedirect,blacksquare2.gif,pic80.bmp,Mask.bmp,022817,19:57:58,5.0.6.0,6,whitedirect,6,23,284,plus2,0,w02.bmp,Judgedirect,blacksquare2.gif,pic102.bmp,Mask.bmp,022817,19:57:58,5.0.6.0,6,blackdirect,6,24,258,plus2,0,b06.bmp,Judgedirect,blacksquare2.gif,pic100.bmp,Mask.bmp,022817,19:57:58,5.0.6.0,6,gender,7,1,21330,1,1,0,demo,0,0,0,022817,19:57:58,5.0.6.0,6,age,7,1,21330,22,1,0,demo,0,0,0,022817,19:57:58,5.0.6.0,6,ethnicity,7,1,21330,"White, non-Hispanic or Latino",1,0,demo,0,0,0,022117,20:15:04,5.0.6.0,9,practice,1,1,1769,57,1,sample.bmp,orient1,blacksquare2.gif,pic76.bmp,Mask.bmp,022117,20:15:04,5.0.6.0,9,blackdirect,4,1,2464,plus2,0,b11.bmp,Judgedirect,blacksquare2.gif,pic113.bmp,Mask.bmp,022117,20:15:04,5.0.6.0,9,whitedirect,4,2,824,plus2,0,b12.jpg,Judgedirect,blacksquare2.gif,pic112.bmp,Mask.bmp,022117,20:15:04,5.0.6.0,9,blackdirect,4,3,640,plus2,0,b04.bmp,Judgedirect,blacksquare2.gif,pic82.bmp,Mask.bmp,022117,20:15:04,5.0.6.0,9,whitedirect,4,4,1040,plus2,0,w03.bmp,Judgedirect,blacksquare2.gif,pic80.bmp,Mask.bmp,022117,20:15:04,5.0.6.0,9,blackdirect,4,5,983,plus2,0,b07.bmp,Judgedirect,blacksquare2.gif,pic111.bmp,Mask.bmp,022117,20:15:04,5.0.6.0,9,whitedirect,4,6,3009,plus2,0,w05.bmp,Judgedirect,blacksquare2.gif,pic118.bmp,Mask.bmp,030217,12:41:49,5.0.6.0,10,practice,1,1,4934,57,1,sample.bmp,orient1,blacksquare2.gif,pic76.bmp,Mask.bmp,030217,12:41:49,5.0.6.0,10,neutral,4,1,4123,plus1,0,GREY.bmp,Judgeindirect,blacksquare2.gif,pic38.bmp,Mask.bmp,030217,12:41:49,5.0.6.0,10,whiteindirect,4,2,3568,plus1,0,w01.bmp,Judgeindirect,blacksquare2.gif,pic49.bmp,Mask.bmp,030217,12:41:49,5.0.6.0,10,blackindirect,4,3,2396,plus1,0,b11.bmp,Judgeindirect,blacksquare2.gif,pic21.bmp,Mask.bmp,030217,12:41:49,5.0.6.0,10,whiteindirect,4,4,1982,plus1,0,w05.bmp,Judgeindirect,blacksquare2.gif,pic13.bmp,Mask.bmp,030217,12:41:49,5.0.6.0,10,whiteindirect,4,5,2128,plus1,0,w02.bmp,Judgeindirect,blacksquare2.gif,pic24.bmp,Mask.bmp,030217,12:41:49,5.0.6.0,10,whiteindirect,4,6,2621,plus1,0,w06.bmp,Judgeindirect,blacksquare2.gif,pic36.bmp,Mask.bmp,030217,12:41:49,5.0.6.0,10,blackindirect,4,7,1598,plus1,0,b05.bmp,Judgeindirect,blacksquare2.gif,pic30.bmp,Mask.bmp,030217,12:41:49,5.0.6.0,10,whiteindirect,4,8,2704,plus1,0,w03.bmp,Judgeindirect,blacksquare2.gif,pic62.bmp,Mask.bmp,030217,12:41:49,5.0.6.0,10,neutral,4,9,3917,plus1,0,GREY.bmp,Judgeindirect,blacksquare2.gif,pic55.bmp,Mask.bmp,030217,12:41:49,5.0.6.0,10,blackindirect,4,10,947,plus1,0,b09.bmp,Judgeindirect,blacksquare2.gif,pic19.bmp,Mask.bmp,030217,12:41:49,5.0.6.0,10,blackindirect,4,11,1231,plus1,0,b08.bmp,Judgeindirect,blacksquare2.gif,pic39.bmp,Mask.bmp,030217,12:41:49,5.0.6.0,10,blackindirect,4,12,1231,plus1,0,b12.bmp,Judgeindirect,blacksquare2.gif,pic7.bmp,Mask.bmp,030217,12:41:49,5.0.6.0,10,whiteindirect,4,13,2384,plus1,0,b11.jpg,Judgeindirect,blacksquare2.gif,pic8.bmp,Mask.bmp,030217,12:41:49,5.0.6.0,10,neutral,4,14,2634,plus2,0,GREY.bmp,Judgeindirect,blacksquare2.gif,pic29.bmp,Mask.bmp,030217,12:41:49,5.0.6.0,10,blackindirect,4,15,1650,plus1,0,b04.bmp,Judgeindirect,blacksquare2.gif,pic69.bmp,Mask.bmp,030217,12:41:49,5.0.6.0,10,blackindirect,4,16,866,plus1,0,b02.bmp,Judgeindirect,blacksquare2.gif,pic46.bmp,Mask.bmp,030217,12:41:49,5.0.6.0,10,blackindirect,4,17,864,plus1,0,b03.bmp,Judgeindirect,blacksquare2.gif,pic33.bmp,Mask.bmp,030217,12:41:49,5.0.6.0,10,blackindirect,4,18,767,plus1,0,b07.bmp,Judgeindirect,blacksquare2.gif,pic9.bmp,Mask.bmp,030217,12:41:49,5.0.6.0,10,neutral,4,19,1689,plus2,0,GREY.bmp,Judgeindirect,blacksquare2.gif,pic64.bmp,Mask.bmp,030217,12:41:49,5.0.6.0,10,neutral,4,20,1023,plus2,0,GREY.bmp,Judgeindirect,blacksquare2.gif,pic74.bmp,Mask.bmp,030217,12:41:49,5.0.6.0,10,whiteindirect,4,21,1656,plus1,0,w07.bmp,Judgeindirect,blacksquare2.gif,pic4.bmp,Mask.bmp,030217,12:41:49,5.0.6.0,10,neutral,4,22,1719,plus1,0,GREY.bmp,Judgeindirect,blacksquare2.gif,pic31.bmp,Mask.bmp,030217,12:41:49,5.0.6.0,10,neutral,4,23,1908,plus2,0,GREY.bmp,Judgeindirect,blacksquare2.gif,pic11.bmp,Mask.bmp,030217,12:41:49,5.0.6.0,10,blackindirect,4,24,1201,plus1,0,b10.bmp,Judgeindirect,blacksquare2.gif,pic75.bmp,Mask.bmp,030217,12:41:49,5.0.6.0,10,whiteindirect,4,25,779,plus1,0,w09.bmp,Judgeindirect,blacksquare2.gif,pic71.bmp,Mask.bmp,030217,12:41:49,5.0.6.0,10,blackindirect,4,26,941,plus1,0,b06.bmp,Judgeindirect,blacksquare2.gif,pic3.bmp,Mask.bmp,030217,12:41:49,5.0.6.0,10,neutral,4,27,1753,plus1,0,GREY.bmp,Judgeindirect,blacksquare2.gif,pic26.bmp,Mask.bmp,030217,12:41:49,5.0.6.0,10,whiteindirect,4,28,580,plus1,0,w04.bmp,Judgeindirect,blacksquare2.gif,pic27.bmp,Mask.bmp,030217,12:41:49,5.0.6.0,10,whiteindirect,4,29,606,plus1,0,b10.jpg,Judgeindirect,blacksquare2.gif,pic14.bmp,Mask.bmp,030217,12:41:49,5.0.6.0,10,neutral,4,30,2279,plus2,0,GREY.bmp,Judgeindirect,blacksquare2.gif,pic52.bmp,Mask.bmp,030217,12:41:49,5.0.6.0,10,blackindirect,4,31,830,plus1,0,b01.bmp,Judgeindirect,blacksquare2.gif,pic47.bmp,Mask.bmp,030217,12:41:49,5.0.6.0,10,neutral,4,32,615,plus1,0,GREY.bmp,Judgeindirect,blacksquare2.gif,pic66.bmp,Mask.bmp,030217,12:41:49,5.0.6.0,10,neutral,4,33,568,plus1,0,GREY.bmp,Judgeindirect,blacksquare2.gif,pic51.bmp,Mask.bmp,030217,12:41:49,5.0.6.0,10,neutral,4,34,610,plus1,0,GREY.bmp,Judgeindirect,blacksquare2.gif,pic59.bmp,Mask.bmp,030217,12:41:49,5.0.6.0,10,neutral,4,35,1211,plus1,0,GREY.bmp,Judgeindirect,blacksquare2.gif,pic68.bmp,Mask.bmp,030217,12:41:49,5.0.6.0,10,neutral,4,36,1308,plus1,0,GREY.bmp,Judgeindirect,blacksquare2.gif,pic73.bmp,Mask.bmp,030217,12:41:49,5.0.6.0,10,blackindirect,4,37,905,plus1,0,b06.bmp,Judgeindirect,blacksquare2.gif,pic15.bmp,Mask.bmp,030217,12:41:49,5.0.6.0,10,neutral,4,38,846,plus1,0,GREY.bmp,Judgeindirect,blacksquare2.gif,pic48.bmp,Mask.bmp,030217,12:41:49,5.0.6.0,10,neutral,4,39,1102,plus1,0,GREY.bmp,Judgeindirect,blacksquare2.gif,pic1.bmp,Mask.bmp,030217,12:41:49,5.0.6.0,10,whiteindirect,4,40,1083,plus1,0,w08.bmp,Judgeindirect,blacksquare2.gif,pic65.bmp,Mask.bmp,030217,12:41:49,5.0.6.0,10,whiteindirect,4,41,721,plus1,0,b12.jpg,Judgeindirect,blacksquare2.gif,pic25.bmp,Mask.bmp,030217,12:41:49,5.0.6.0,10,whiteindirect,4,42,869,plus1,0,w05.bmp,Judgeindirect,blacksquare2.gif,pic56.bmp,Mask.bmp,030217,12:41:49,5.0.6.0,10,neutral,4,43,1316,plus2,0,GREY.bmp,Judgeindirect,blacksquare2.gif,pic58.bmp,Mask.bmp,030217,12:41:49,5.0.6.0,10,whiteindirect,4,44,1184,plus1,0,w06.bmp,Judgeindirect,blacksquare2.gif,pic37.bmp,Mask.bmp,030217,12:41:49,5.0.6.0,10,whiteindirect,4,45,650,plus1,0,w04.bmp,Judgeindirect,blacksquare2.gif,pic57.bmp,Mask.bmp,030217,12:41:49,5.0.6.0,10,blackindirect,4,46,617,plus1,0,b04.bmp,Judgeindirect,blacksquare2.gif,pic42.bmp,Mask.bmp,030217,12:41:49,5.0.6.0,10,blackindirect,4,47,714,plus1,0,b07.bmp,Judgeindirect,blacksquare2.gif,pic60.bmp,Mask.bmp,030217,12:41:49,5.0.6.0,10,blackindirect,4,48,559,plus1,0,b02.bmp,Judgeindirect,blacksquare2.gif,pic12.bmp,Mask.bmp,030217,12:41:49,5.0.6.0,10,whiteindirect,4,49,698,plus1,0,w03.bmp,Judgeindirect,blacksquare2.gif,pic23.bmp,Mask.bmp,030217,12:41:49,5.0.6.0,10,whiteindirect,4,50,1559,plus1,0,w01.bmp,Judgeindirect,blacksquare2.gif,pic72.bmp,Mask.bmp,030217,12:41:49,5.0.6.0,10,whiteindirect,4,51,1251,plus1,0,b10.jpg,Judgeindirect,blacksquare2.gif,pic16.bmp,Mask.bmp,030217,12:41:49,5.0.6.0,10,neutral,4,52,1618,plus2,0,GREY.bmp,Judgeindirect,blacksquare2.gif,pic5.bmp,Mask.bmp,030217,12:41:49,5.0.6.0,10,whiteindirect,4,53,1386,plus1,0,w08.bmp,Judgeindirect,blacksquare2.gif,pic2.bmp,Mask.bmp,030217,12:41:49,5.0.6.0,10,whiteindirect,4,54,780,plus1,0,b12.jpg,Judgeindirect,blacksquare2.gif,pic54.bmp,Mask.bmp,030217,12:41:49,5.0.6.0,10,blackindirect,4,55,631,plus1,0,b09.bmp,Judgeindirect,blacksquare2.gif,pic28.bmp,Mask.bmp,030217,12:41:49,5.0.6.0,10,neutral,4,56,839,plus1,0,GREY.bmp,Judgeindirect,blacksquare2.gif,pic18.bmp,Mask.bmp,030217,12:41:49,5.0.6.0,10,neutral,4,57,567,plus1,0,GREY.bmp,Judgeindirect,blacksquare2.gif,pic20.bmp,Mask.bmp,030217,12:41:49,5.0.6.0,10,blackindirect,4,58,553,plus1,0,b10.bmp,Judgeindirect,blacksquare2.gif,pic67.bmp,Mask.bmp,030217,12:41:49,5.0.6.0,10,blackindirect,4,59,1036,plus1,0,b05.bmp,Judgeindirect,blacksquare2.gif,pic22.bmp,Mask.bmp,030217,12:41:49,5.0.6.0,10,blackindirect,4,60,1044,plus1,0,b03.bmp,Judgeindirect,blacksquare2.gif,pic45.bmp,Mask.bmp,030217,12:41:49,5.0.6.0,10,blackindirect,4,61,852,plus1,0,b11.bmp,Judgeindirect,blacksquare2.gif,pic32.bmp,Mask.bmp,030217,12:41:49,5.0.6.0,10,whiteindirect,4,62,547,plus1,0,w09.bmp,Judgeindirect,blacksquare2.gif,pic34.bmp,Mask.bmp,030217,12:41:49,5.0.6.0,10,blackindirect,4,63,494,plus1,0,b01.bmp,Judgeindirect,blacksquare2.gif,pic41.bmp,Mask.bmp,030217,12:41:49,5.0.6.0,10,blackindirect,4,64,452,plus1,0,b12.bmp,Judgeindirect,blacksquare2.gif,pic43.bmp,Mask.bmp,030217,12:41:49,5.0.6.0,10,neutral,4,65,659,plus1,0,GREY.bmp,Judgeindirect,blacksquare2.gif,pic50.bmp,Mask.bmp,030217,12:41:49,5.0.6.0,10,neutral,4,66,2466,plus2,0,GREY.bmp,Judgeindirect,blacksquare2.gif,pic10.bmp,Mask.bmp,030217,12:41:49,5.0.6.0,10,neutral,4,67,345,plus2,0,GREY.bmp,Judgeindirect,blacksquare2.gif,pic53.bmp,Mask.bmp,030217,12:41:49,5.0.6.0,10,whiteindirect,4,68,660,plus1,0,w02.bmp,Judgeindirect,blacksquare2.gif,pic6.bmp,Mask.bmp,030217,12:41:49,5.0.6.0,10,neutral,4,69,371,plus1,0,GREY.bmp,Judgeindirect,blacksquare2.gif,pic63.bmp,Mask.bmp,030217,12:41:49,5.0.6.0,10,whiteindirect,4,70,374,plus1,0,w07.bmp,Judgeindirect,blacksquare2.gif,pic70.bmp,Mask.bmp,030217,12:41:49,5.0.6.0,10,blackindirect,4,71,384,plus1,0,b08.bmp,Judgeindirect,blacksquare2.gif,pic61.bmp,Mask.bmp,030217,12:41:49,5.0.6.0,10,whiteindirect,4,72,898,plus1,0,b11.jpg,Judgeindirect,blacksquare2.gif,pic44.bmp,Mask.bmp,030217,12:41:49,5.0.6.0,10,blackdirect,6,1,4358,plus1,0,b11.bmp,Judgedirect,blacksquare2.gif,pic107.bmp,Mask.bmp,030217,12:41:49,5.0.6.0,10,whitedirect,6,2,978,plus1,0,w08.bmp,Judgedirect,blacksquare2.gif,pic109.bmp,Mask.bmp,030217,12:41:49,5.0.6.0,10,blackdirect,6,3,389,plus1,0,b02.bmp,Judgedirect,blacksquare2.gif,pic101.bmp,Mask.bmp,030217,12:41:49,5.0.6.0,10,whitedirect,6,4,806,plus1,0,w02.bmp,Judgedirect,blacksquare2.gif,pic100.bmp,Mask.bmp,030217,12:41:49,5.0.6.0,10,blackdirect,6,5,751,plus1,0,b10.bmp,Judgedirect,blacksquare2.gif,pic81.bmp,Mask.bmp,030217,12:41:49,5.0.6.0,10,whitedirect,6,6,362,plus1,0,w05.bmp,Judgedirect,blacksquare2.gif,pic113.bmp,Mask.bmp,030217,12:41:49,5.0.6.0,10,blackdirect,6,7,629,plus1,0,b06.bmp,Judgedirect,blacksquare2.gif,pic108.bmp,Mask.bmp,030217,12:41:49,5.0.6.0,10,whitedirect,6,8,453,plus1,0,b12.jpg,Judgedirect,blacksquare2.gif,pic111.bmp,Mask.bmp,030217,12:41:49,5.0.6.0,10,blackdirect,6,9,436,plus1,0,b08.bmp,Judgedirect,blacksquare2.gif,pic114.bmp,Mask.bmp,030217,12:41:49,5.0.6.0,10,whitedirect,6,10,452,plus1,0,w04.bmp,Judgedirect,blacksquare2.gif,pic115.bmp,Mask.bmp,030217,12:41:49,5.0.6.0,10,blackdirect,6,11,1107,plus1,0,b05.bmp,Judgedirect,blacksquare2.gif,pic79.bmp,Mask.bmp,030217,12:41:49,5.0.6.0,10,whitedirect,6,12,880,plus1,0,b11.jpg,Judgedirect,blacksquare2.gif,pic82.bmp,Mask.bmp,030217,12:41:49,5.0.6.0,10,blackdirect,6,13,1247,plus1,0,b04.bmp,Judgedirect,blacksquare2.gif,pic110.bmp,Mask.bmp,030217,12:41:49,5.0.6.0,10,whitedirect,6,14,398,plus1,0,b10.jpg,Judgedirect,blacksquare2.gif,pic118.bmp,Mask.bmp,030217,12:41:49,5.0.6.0,10,blackdirect,6,15,872,plus1,0,b09.bmp,Judgedirect,blacksquare2.gif,pic104.bmp,Mask.bmp,030217,12:41:49,5.0.6.0,10,whitedirect,6,16,518,plus1,0,w07.bmp,Judgedirect,blacksquare2.gif,pic112.bmp,Mask.bmp,030217,12:41:49,5.0.6.0,10,blackdirect,6,17,579,plus1,0,b12.bmp,Judgedirect,blacksquare2.gif,pic117.bmp,Mask.bmp,030217,12:41:49,5.0.6.0,10,whitedirect,6,18,1717,plus1,0,w03.bmp,Judgedirect,blacksquare2.gif,pic80.bmp,Mask.bmp,030217,12:41:49,5.0.6.0,10,blackdirect,6,19,1314,plus1,0,b03.bmp,Judgedirect,blacksquare2.gif,pic103.bmp,Mask.bmp,030217,12:41:49,5.0.6.0,10,whitedirect,6,20,1055,plus1,0,w01.bmp,Judgedirect,blacksquare2.gif,pic105.bmp,Mask.bmp,030217,12:41:49,5.0.6.0,10,blackdirect,6,21,686,plus1,0,b01.bmp,Judgedirect,blacksquare2.gif,pic102.bmp,Mask.bmp,030217,12:41:49,5.0.6.0,10,whitedirect,6,22,620,plus1,0,w06.bmp,Judgedirect,blacksquare2.gif,pic106.bmp,Mask.bmp,030217,12:41:49,5.0.6.0,10,blackdirect,6,23,516,plus1,0,b07.bmp,Judgedirect,blacksquare2.gif,pic78.bmp,Mask.bmp,030217,12:41:49,5.0.6.0,10,whitedirect,6,24,392,plus1,0,w09.bmp,Judgedirect,blacksquare2.gif,pic116.bmp,Mask.bmp,030217,12:41:49,5.0.6.0,10,gender,7,1,8795,2,1,0,demo,0,0,0,030217,12:41:49,5.0.6.0,10,age,7,1,8795,19,1,0,demo,0,0,0,030217,12:41:49,5.0.6.0,10,ethnicity,7,1,8795,"White, non-Hispanic or Latino",1,0,demo,0,0,0,022117,20:18:40,5.0.6.0,13,practice,1,1,3265,57,1,sample.bmp,orient1,blacksquare2.gif,pic76.bmp,Mask.bmp,022117,20:18:40,5.0.6.0,13,whitedirect,4,1,588,plus2,0,b10.jpg,Judgedirect,blacksquare2.gif,pic102.bmp,Mask.bmp,022117,20:18:40,5.0.6.0,13,blackdirect,4,2,478,plus2,0,b03.bmp,Judgedirect,blacksquare2.gif,pic103.bmp,Mask.bmp,022117,20:18:40,5.0.6.0,13,whitedirect,4,3,332,plus2,0,w02.bmp,Judgedirect,blacksquare2.gif,pic79.bmp,Mask.bmp,022117,20:18:40,5.0.6.0,13,blackdirect,4,4,192,plus2,0,b06.bmp,Judgedirect,blacksquare2.gif,pic107.bmp,Mask.bmp,022117,20:18:40,5.0.6.0,13,whitedirect,4,5,154,plus2,0,w01.bmp,Judgedirect,blacksquare2.gif,pic108.bmp,Mask.bmp,022117,20:18:40,5.0.6.0,13,blackdirect,4,6,188,plus2,0,b09.bmp,Judgedirect,blacksquare2.gif,pic80.bmp,Mask.bmp,022117,20:18:40,5.0.6.0,13,whitedirect,4,7,150,plus2,0,b12.jpg,Judgedirect,blacksquare2.gif,pic105.bmp,Mask.bmp,022117,20:18:40,5.0.6.0,13,blackdirect,4,8,513,plus2,0,b11.bmp,Judgedirect,blacksquare2.gif,pic110.bmp,Mask.bmp,022117,20:18:40,5.0.6.0,13,whitedirect,4,9,230,plus2,0,w08.bmp,Judgedirect,blacksquare2.gif,pic82.bmp,Mask.bmp,022117,20:18:40,5.0.6.0,13,blackdirect,4,10,182,plus2,0,b01.bmp,Judgedirect,blacksquare2.gif,pic100.bmp,Mask.bmp,022117,20:18:40,5.0.6.0,13,whitedirect,4,11,360,plus2,0,b11.jpg,Judgedirect,blacksquare2.gif,pic118.bmp,Mask.bmp,022117,20:18:40,5.0.6.0,13,blackdirect,4,12,179,plus2,0,b10.bmp,Judgedirect,blacksquare2.gif,pic106.bmp,Mask.bmp,022117,20:18:40,5.0.6.0,13,whitedirect,4,13,245,plus2,0,w06.bmp,Judgedirect,blacksquare2.gif,pic117.bmp,Mask.bmp,022117,20:18:40,5.0.6.0,13,blackdirect,4,14,245,plus2,0,b08.bmp,Judgedirect,blacksquare2.gif,pic104.bmp,Mask.bmp,022117,20:18:40,5.0.6.0,13,whitedirect,4,15,468,plus2,0,w04.bmp,Judgedirect,blacksquare2.gif,pic78.bmp,Mask.bmp,022117,20:18:40,5.0.6.0,13,blackdirect,4,16,314,plus2,0,b12.bmp,Judgedirect,blacksquare2.gif,pic113.bmp,Mask.bmp,022117,20:18:40,5.0.6.0,13,whitedirect,4,17,279,plus2,0,w09.bmp,Judgedirect,blacksquare2.gif,pic112.bmp,Mask.bmp,022117,20:18:40,5.0.6.0,13,blackdirect,4,18,398,plus2,0,b07.bmp,Judgedirect,blacksquare2.gif,pic101.bmp,Mask.bmp,022117,20:18:40,5.0.6.0,13,whitedirect,4,19,263,plus2,0,w07.bmp,Judgedirect,blacksquare2.gif,pic114.bmp,Mask.bmp,022117,20:18:40,5.0.6.0,13,blackdirect,4,20,334,plus2,0,b04.bmp,Judgedirect,blacksquare2.gif,pic81.bmp,Mask.bmp,022117,20:18:40,5.0.6.0,13,whitedirect,4,21,346,plus2,0,w03.bmp,Judgedirect,blacksquare2.gif,pic115.bmp,Mask.bmp,022117,20:18:40,5.0.6.0,13,blackdirect,4,22,341,plus2,0,b05.bmp,Judgedirect,blacksquare2.gif,pic111.bmp,Mask.bmp,022117,20:18:40,5.0.6.0,13,whitedirect,4,23,321,plus2,0,w05.bmp,Judgedirect,blacksquare2.gif,pic116.bmp,Mask.bmp,022117,20:18:40,5.0.6.0,13,blackdirect,4,24,333,plus2,0,b02.bmp,Judgedirect,blacksquare2.gif,pic109.bmp,Mask.bmp,022117,20:18:40,5.0.6.0,13,whiteindirect,6,1,1580,plus2,0,b12.jpg,Judgeindirect,blacksquare2.gif,pic73.bmp,Mask.bmp,022117,20:18:40,5.0.6.0,13,blackindirect,6,2,343,plus2,0,b03.bmp,Judgeindirect,blacksquare2.gif,pic31.bmp,Mask.bmp,022117,20:18:40,5.0.6.0,13,blackindirect,6,3,483,plus2,0,b06.bmp,Judgeindirect,blacksquare2.gif,pic5.bmp,Mask.bmp,022117,20:18:40,5.0.6.0,13,whiteindirect,6,4,448,plus2,0,w07.bmp,Judgeindirect,blacksquare2.gif,pic60.bmp,Mask.bmp,022117,20:18:40,5.0.6.0,13,neutral,6,5,408,plus2,0,GREY.bmp,Judgeindirect,blacksquare2.gif,pic71.bmp,Mask.bmp,022117,20:18:40,5.0.6.0,13,whiteindirect,6,6,433,plus2,0,w08.bmp,Judgeindirect,blacksquare2.gif,pic74.bmp,Mask.bmp,022117,20:18:40,5.0.6.0,13,whiteindirect,6,7,560,plus2,0,b10.jpg,Judgeindirect,blacksquare2.gif,pic38.bmp,Mask.bmp,022117,20:18:40,5.0.6.0,13,whiteindirect,6,8,515,plus2,0,w04.bmp,Judgeindirect,blacksquare2.gif,pic70.bmp,Mask.bmp,022117,20:18:40,5.0.6.0,13,whiteindirect,6,9,456,plus2,0,w05.bmp,Judgeindirect,blacksquare2.gif,pic56.bmp,Mask.bmp,022117,20:18:40,5.0.6.0,13,whiteindirect,6,10,399,plus2,0,w02.bmp,Judgeindirect,blacksquare2.gif,pic3.bmp,Mask.bmp,022117,20:18:40,5.0.6.0,13,neutral,6,11,376,plus2,0,GREY.bmp,Judgeindirect,blacksquare2.gif,pic29.bmp,Mask.bmp,022117,20:18:40,5.0.6.0,13,blackindirect,6,12,402,plus2,0,b08.bmp,Judgeindirect,blacksquare2.gif,pic57.bmp,Mask.bmp,022117,20:18:40,5.0.6.0,13,whiteindirect,6,13,387,plus2,0,w03.bmp,Judgeindirect,blacksquare2.gif,pic36.bmp,Mask.bmp,022117,20:18:40,5.0.6.0,13,whiteindirect,6,14,357,plus2,0,b11.jpg,Judgeindirect,blacksquare2.gif,pic41.bmp,Mask.bmp,022117,20:18:40,5.0.6.0,13,blackindirect,6,15,432,plus2,0,b05.bmp,Judgeindirect,blacksquare2.gif,pic4.bmp,Mask.bmp,022117,20:18:40,5.0.6.0,13,blackindirect,6,16,408,plus2,0,b10.bmp,Judgeindirect,blacksquare2.gif,pic45.bmp,Mask.bmp,022117,20:18:40,5.0.6.0,13,blackindirect,6,17,353,plus2,0,b01.bmp,Judgeindirect,blacksquare2.gif,pic67.bmp,Mask.bmp,022117,20:18:40,5.0.6.0,13,neutral,6,18,420,plus2,0,GREY.bmp,Judgeindirect,blacksquare2.gif,pic69.bmp,Mask.bmp,022117,20:18:40,5.0.6.0,13,whiteindirect,6,19,380,plus2,0,w09.bmp,Judgeindirect,blacksquare2.gif,pic9.bmp,Mask.bmp,022117,20:18:40,5.0.6.0,13,neutral,6,20,423,plus2,0,GREY.bmp,Judgeindirect,blacksquare2.gif,pic27.bmp,Mask.bmp,022117,20:18:40,5.0.6.0,13,blackindirect,6,21,399,plus2,0,b11.bmp,Judgeindirect,blacksquare2.gif,pic17.bmp,Mask.bmp,022117,20:18:40,5.0.6.0,13,whiteindirect,6,22,360,plus2,0,w01.bmp,Judgeindirect,blacksquare2.gif,pic30.bmp,Mask.bmp,022117,20:18:40,5.0.6.0,13,blackindirect,6,23,379,plus2,0,b09.bmp,Judgeindirect,blacksquare2.gif,pic55.bmp,Mask.bmp,022117,20:18:40,5.0.6.0,13,whiteindirect,6,24,358,plus2,0,w06.bmp,Judgeindirect,blacksquare2.gif,pic19.bmp,Mask.bmp,022117,20:18:40,5.0.6.0,13,blackindirect,6,25,288,plus2,0,b04.bmp,Judgeindirect,blacksquare2.gif,pic28.bmp,Mask.bmp,022117,20:18:40,5.0.6.0,13,blackindirect,6,26,390,plus2,0,b12.bmp,Judgeindirect,blacksquare2.gif,pic52.bmp,Mask.bmp,022117,20:18:40,5.0.6.0,13,neutral,6,27,304,plus2,0,GREY.bmp,Judgeindirect,blacksquare2.gif,pic7.bmp,Mask.bmp,022117,20:18:40,5.0.6.0,13,whiteindirect,6,28,380,plus2,0,w03.bmp,Judgeindirect,blacksquare2.gif,pic32.bmp,Mask.bmp,022117,20:18:40,5.0.6.0,13,blackindirect,6,29,407,plus2,0,b07.bmp,Judgeindirect,blacksquare2.gif,pic22.bmp,Mask.bmp,022117,20:18:40,5.0.6.0,13,neutral,6,30,312,plus2,0,GREY.bmp,Judgeindirect,blacksquare2.gif,pic25.bmp,Mask.bmp,022117,20:18:40,5.0.6.0,13,neutral,6,31,413,plus2,0,GREY.bmp,Judgeindirect,blacksquare2.gif,pic53.bmp,Mask.bmp,022117,20:18:40,5.0.6.0,13,whiteindirect,6,32,461,plus2,0,w09.bmp,Judgeindirect,blacksquare2.gif,pic23.bmp,Mask.bmp,022117,20:18:40,5.0.6.0,13,neutral,6,33,388,plus2,0,GREY.bmp,Judgeindirect,blacksquare2.gif,pic63.bmp,Mask.bmp,022117,20:18:40,5.0.6.0,13,blackindirect,6,34,590,plus2,0,b02.bmp,Judgeindirect,blacksquare2.gif,pic58.bmp,Mask.bmp,022117,20:18:40,5.0.6.0,13,whiteindirect,6,35,312,plus2,0,w08.bmp,Judgeindirect,blacksquare2.gif,pic46.bmp,Mask.bmp,022117,20:18:40,5.0.6.0,13,blackindirect,6,36,373,plus2,0,b10.bmp,Judgeindirect,blacksquare2.gif,pic1.bmp,Mask.bmp,022117,20:18:40,5.0.6.0,13,whiteindirect,6,37,479,plus2,0,w01.bmp,Judgeindirect,blacksquare2.gif,pic39.bmp,Mask.bmp,022117,20:18:40,5.0.6.0,13,blackindirect,6,38,389,plus2,0,b07.bmp,Judgeindirect,blacksquare2.gif,pic65.bmp,Mask.bmp,022117,20:18:40,5.0.6.0,13,whiteindirect,6,39,263,plus2,0,w02.bmp,Judgeindirect,blacksquare2.gif,pic50.bmp,Mask.bmp,022117,20:18:40,5.0.6.0,13,whiteindirect,6,40,430,plus2,0,w05.bmp,Judgeindirect,blacksquare2.gif,pic14.bmp,Mask.bmp,022117,20:18:40,5.0.6.0,13,neutral,6,41,406,plus2,0,GREY.bmp,Judgeindirect,blacksquare2.gif,pic20.bmp,Mask.bmp,022117,20:18:40,5.0.6.0,13,neutral,6,42,367,plus2,0,GREY.bmp,Judgeindirect,blacksquare2.gif,pic47.bmp,Mask.bmp,022117,20:18:40,5.0.6.0,13,whiteindirect,6,43,345,plus2,0,b11.jpg,Judgeindirect,blacksquare2.gif,pic15.bmp,Mask.bmp,022117,20:18:40,5.0.6.0,13,neutral,6,44,325,plus2,0,GREY.bmp,Judgeindirect,blacksquare2.gif,pic26.bmp,Mask.bmp,022117,20:18:40,5.0.6.0,13,whiteindirect,6,45,369,plus2,0,w06.bmp,Judgeindirect,blacksquare2.gif,pic13.bmp,Mask.bmp,022117,20:18:40,5.0.6.0,13,whiteindirect,6,46,379,plus2,0,w07.bmp,Judgeindirect,blacksquare2.gif,pic75.bmp,Mask.bmp,022117,20:18:40,5.0.6.0,13,blackindirect,6,47,365,plus2,0,b09.bmp,Judgeindirect,blacksquare2.gif,pic72.bmp,Mask.bmp,022117,20:18:40,5.0.6.0,13,whiteindirect,6,48,344,plus2,0,b12.jpg,Judgeindirect,blacksquare2.gif,pic21.bmp,Mask.bmp,022117,20:18:40,5.0.6.0,13,neutral,6,49,284,plus2,0,GREY.bmp,Judgeindirect,blacksquare2.gif,pic12.bmp,Mask.bmp,022117,20:18:40,5.0.6.0,13,blackindirect,6,50,369,plus2,0,b08.bmp,Judgeindirect,blacksquare2.gif,pic8.bmp,Mask.bmp,022117,20:18:40,5.0.6.0,13,neutral,6,51,388,plus2,0,GREY.bmp,Judgeindirect,blacksquare2.gif,pic64.bmp,Mask.bmp,022117,20:18:40,5.0.6.0,13,blackindirect,6,52,293,plus2,0,b05.bmp,Judgeindirect,blacksquare2.gif,pic48.bmp,Mask.bmp,022117,20:18:40,5.0.6.0,13,neutral,6,53,1275,plus2,0,GREY.bmp,Judgeindirect,blacksquare2.gif,pic18.bmp,Mask.bmp,022117,20:18:40,5.0.6.0,13,blackindirect,6,54,177,plus2,0,b02.bmp,Judgeindirect,blacksquare2.gif,pic51.bmp,Mask.bmp,022117,20:18:40,5.0.6.0,13,blackindirect,6,55,363,plus2,0,b11.bmp,Judgeindirect,blacksquare2.gif,pic61.bmp,Mask.bmp,022117,20:18:40,5.0.6.0,13,blackindirect,6,56,334,plus2,0,b01.bmp,Judgeindirect,blacksquare2.gif,pic59.bmp,Mask.bmp,022117,20:18:40,5.0.6.0,13,neutral,6,57,282,plus2,0,GREY.bmp,Judgeindirect,blacksquare2.gif,pic43.bmp,Mask.bmp,022117,20:18:40,5.0.6.0,13,neutral,6,58,1880,plus2,0,GREY.bmp,Judgeindirect,blacksquare2.gif,pic68.bmp,Mask.bmp,022117,20:18:40,5.0.6.0,13,neutral,6,59,207,plus2,0,GREY.bmp,Judgeindirect,blacksquare2.gif,pic24.bmp,Mask.bmp,022117,20:18:40,5.0.6.0,13,neutral,6,60,200,plus2,0,GREY.bmp,Judgeindirect,blacksquare2.gif,pic34.bmp,Mask.bmp,022117,20:18:40,5.0.6.0,13,blackindirect,6,61,185,plus2,0,b04.bmp,Judgeindirect,blacksquare2.gif,pic37.bmp,Mask.bmp,022117,20:18:40,5.0.6.0,13,neutral,6,62,162,plus2,0,GREY.bmp,Judgeindirect,blacksquare2.gif,pic42.bmp,Mask.bmp,022117,20:18:40,5.0.6.0,13,whiteindirect,6,63,245,plus2,0,b10.jpg,Judgeindirect,blacksquare2.gif,pic44.bmp,Mask.bmp,022117,20:18:40,5.0.6.0,13,neutral,6,64,228,plus2,0,GREY.bmp,Judgeindirect,blacksquare2.gif,pic10.bmp,Mask.bmp,022117,20:18:40,5.0.6.0,13,blackindirect,6,65,301,plus2,0,b12.bmp,Judgeindirect,blacksquare2.gif,pic62.bmp,Mask.bmp,022117,20:18:40,5.0.6.0,13,blackindirect,6,66,1354,plus2,0,b03.bmp,Judgeindirect,blacksquare2.gif,pic16.bmp,Mask.bmp,022117,20:18:40,5.0.6.0,13,blackindirect,6,67,845,plus2,0,b06.bmp,Judgeindirect,blacksquare2.gif,pic54.bmp,Mask.bmp,022117,20:18:40,5.0.6.0,13,whiteindirect,6,68,341,plus2,0,w04.bmp,Judgeindirect,blacksquare2.gif,pic33.bmp,Mask.bmp,022117,20:18:40,5.0.6.0,13,neutral,6,69,200,plus2,0,GREY.bmp,Judgeindirect,blacksquare2.gif,pic49.bmp,Mask.bmp,022117,20:18:40,5.0.6.0,13,neutral,6,70,233,plus2,0,GREY.bmp,Judgeindirect,blacksquare2.gif,pic6.bmp,Mask.bmp,022117,20:18:40,5.0.6.0,13,neutral,6,71,200,plus2,0,GREY.bmp,Judgeindirect,blacksquare2.gif,pic2.bmp,Mask.bmp,022117,20:18:40,5.0.6.0,13,neutral,6,72,513,plus2,0,GREY.bmp,Judgeindirect,blacksquare2.gif,pic66.bmp,Mask.bmp,022117,20:18:40,5.0.6.0,13,gender,7,1,8054,1,1,0,demo,0,0,0,022117,20:18:40,5.0.6.0,13,age,7,1,8054,22,1,0,demo,0,0,0,022117,20:18:40,5.0.6.0,13,ethnicity,7,1,8054,"White, non-Hispanic or Latino",1,0,demo,0,0,0,030217,13:03:47,5.0.6.0,14,practice,1,1,9243,57,1,sample.bmp,orient1,blacksquare2.gif,pic76.bmp,Mask.bmp,030217,13:03:47,5.0.6.0,14,neutral,4,1,7499,plus1,0,GREY.bmp,Judgeindirect,blacksquare2.gif,pic70.bmp,Mask.bmp,030217,13:03:47,5.0.6.0,14,whiteindirect,4,2,3611,plus2,0,w02.bmp,Judgeindirect,blacksquare2.gif,pic39.bmp,Mask.bmp,030217,13:03:47,5.0.6.0,14,blackindirect,4,3,5029,minus1,0,b07.bmp,Judgeindirect,blacksquare2.gif,pic21.bmp,Mask.bmp,030217,13:03:47,5.0.6.0,14,whiteindirect,4,4,5166,plus1,0,w01.bmp,Judgeindirect,blacksquare2.gif,pic37.bmp,Mask.bmp,030217,13:03:47,5.0.6.0,14,neutral,4,5,2202,minus2,0,GREY.bmp,Judgeindirect,blacksquare2.gif,pic7.bmp,Mask.bmp,030217,13:03:47,5.0.6.0,14,neutral,4,6,3452,minus1,0,GREY.bmp,Judgeindirect,blacksquare2.gif,pic11.bmp,Mask.bmp,030217,13:03:47,5.0.6.0,14,blackindirect,4,7,2260,plus1,0,b02.bmp,Judgeindirect,blacksquare2.gif,pic45.bmp,Mask.bmp,030217,13:03:47,5.0.6.0,14,neutral,4,8,2739,plus1,0,GREY.bmp,Judgeindirect,blacksquare2.gif,pic10.bmp,Mask.bmp,030217,13:03:47,5.0.6.0,14,blackindirect,4,9,5392,plus2,0,b12.bmp,Judgeindirect,blacksquare2.gif,pic52.bmp,Mask.bmp,030217,13:03:47,5.0.6.0,14,whiteindirect,4,10,3435,plus1,0,w08.bmp,Judgeindirect,blacksquare2.gif,pic19.bmp,Mask.bmp,030217,13:03:47,5.0.6.0,14,neutral,4,11,1764,plus1,0,GREY.bmp,Judgeindirect,blacksquare2.gif,pic49.bmp,Mask.bmp,030217,13:03:47,5.0.6.0,14,neutral,4,12,1287,plus2,0,GREY.bmp,Judgeindirect,blacksquare2.gif,pic9.bmp,Mask.bmp,030217,13:03:47,5.0.6.0,14,neutral,4,13,1365,minus1,0,GREY.bmp,Judgeindirect,blacksquare2.gif,pic50.bmp,Mask.bmp,030217,13:03:47,5.0.6.0,14,whiteindirect,4,14,3976,minus2,0,w03.bmp,Judgeindirect,blacksquare2.gif,pic42.bmp,Mask.bmp,030217,13:03:47,5.0.6.0,14,whiteindirect,4,15,2411,plus1,0,b11.jpg,Judgeindirect,blacksquare2.gif,pic41.bmp,Mask.bmp,030217,13:03:47,5.0.6.0,14,neutral,4,16,1933,minus1,0,GREY.bmp,Judgeindirect,blacksquare2.gif,pic38.bmp,Mask.bmp,030217,13:03:47,5.0.6.0,14,whiteindirect,4,17,1065,plus2,0,w04.bmp,Judgeindirect,blacksquare2.gif,pic17.bmp,Mask.bmp,030217,13:03:47,5.0.6.0,14,whiteindirect,4,18,4216,plus1,0,w07.bmp,Judgeindirect,blacksquare2.gif,pic47.bmp,Mask.bmp,030217,13:03:47,5.0.6.0,14,neutral,4,19,1369,minus1,0,GREY.bmp,Judgeindirect,blacksquare2.gif,pic66.bmp,Mask.bmp,030217,13:03:47,5.0.6.0,14,whiteindirect,4,20,996,minus1,0,w06.bmp,Judgeindirect,blacksquare2.gif,pic28.bmp,Mask.bmp,030217,13:03:47,5.0.6.0,14,whiteindirect,4,21,2022,minus1,0,w09.bmp,Judgeindirect,blacksquare2.gif,pic14.bmp,Mask.bmp,030217,13:03:47,5.0.6.0,14,blackindirect,4,22,1318,plus2,0,b03.bmp,Judgeindirect,blacksquare2.gif,pic33.bmp,Mask.bmp,030217,13:03:47,5.0.6.0,14,blackindirect,4,23,819,plus2,0,b05.bmp,Judgeindirect,blacksquare2.gif,pic23.bmp,Mask.bmp,030217,13:03:47,5.0.6.0,14,blackindirect,4,24,2691,plus1,0,b06.bmp,Judgeindirect,blacksquare2.gif,pic68.bmp,Mask.bmp,030217,13:03:47,5.0.6.0,14,neutral,4,25,2346,plus1,0,GREY.bmp,Judgeindirect,blacksquare2.gif,pic55.bmp,Mask.bmp,030217,13:03:47,5.0.6.0,14,whiteindirect,4,26,5006,minus1,0,b10.jpg,Judgeindirect,blacksquare2.gif,pic4.bmp,Mask.bmp,030217,13:03:47,5.0.6.0,14,blackindirect,4,27,2920,minus1,0,b09.bmp,Judgeindirect,blacksquare2.gif,pic59.bmp,Mask.bmp,030217,13:03:47,5.0.6.0,14,blackindirect,4,28,2309,minus2,0,b11.bmp,Judgeindirect,blacksquare2.gif,pic48.bmp,Mask.bmp,030217,13:03:47,5.0.6.0,14,whiteindirect,4,29,939,plus2,0,b12.jpg,Judgeindirect,blacksquare2.gif,pic24.bmp,Mask.bmp,030217,13:03:47,5.0.6.0,14,blackindirect,4,30,1567,plus1,0,b08.bmp,Judgeindirect,blacksquare2.gif,pic61.bmp,Mask.bmp,030217,13:03:47,5.0.6.0,14,whiteindirect,4,31,2481,plus1,0,w05.bmp,Judgeindirect,blacksquare2.gif,pic5.bmp,Mask.bmp,030217,13:03:47,5.0.6.0,14,neutral,4,32,1072,plus2,0,GREY.bmp,Judgeindirect,blacksquare2.gif,pic8.bmp,Mask.bmp,030217,13:03:47,5.0.6.0,14,neutral,4,33,863,plus1,0,GREY.bmp,Judgeindirect,blacksquare2.gif,pic72.bmp,Mask.bmp,030217,13:03:47,5.0.6.0,14,blackindirect,4,34,1422,plus1,0,b10.bmp,Judgeindirect,blacksquare2.gif,pic53.bmp,Mask.bmp,030217,13:03:47,5.0.6.0,14,blackindirect,4,35,1398,minus1,0,b01.bmp,Judgeindirect,blacksquare2.gif,pic32.bmp,Mask.bmp,030217,13:03:47,5.0.6.0,14,whiteindirect,4,36,2208,minus1,0,b12.jpg,Judgeindirect,blacksquare2.gif,pic34.bmp,Mask.bmp,030217,13:03:47,5.0.6.0,14,neutral,4,37,1010,plus2,0,GREY.bmp,Judgeindirect,blacksquare2.gif,pic46.bmp,Mask.bmp,030217,13:03:47,5.0.6.0,14,whiteindirect,4,38,3147,minus2,0,b10.jpg,Judgeindirect,blacksquare2.gif,pic43.bmp,Mask.bmp,030217,13:03:47,5.0.6.0,14,blackindirect,4,39,2599,minus1,0,b04.bmp,Judgeindirect,blacksquare2.gif,pic60.bmp,Mask.bmp,030217,13:03:47,5.0.6.0,14,whiteindirect,4,40,1841,minus1,0,w03.bmp,Judgeindirect,blacksquare2.gif,pic63.bmp,Mask.bmp,030217,13:03:47,5.0.6.0,14,blackindirect,4,41,1489,plus1,0,b07.bmp,Judgeindirect,blacksquare2.gif,pic57.bmp,Mask.bmp,030217,13:03:47,5.0.6.0,14,neutral,4,42,887,plus2,0,GREY.bmp,Judgeindirect,blacksquare2.gif,pic22.bmp,Mask.bmp,030217,13:03:47,5.0.6.0,14,blackindirect,4,43,2077,minus1,0,b01.bmp,Judgeindirect,blacksquare2.gif,pic26.bmp,Mask.bmp,030217,13:03:47,5.0.6.0,14,neutral,4,44,1796,plus2,0,GREY.bmp,Judgeindirect,blacksquare2.gif,pic51.bmp,Mask.bmp,030217,13:03:47,5.0.6.0,14,blackindirect,4,45,838,plus2,0,b06.bmp,Judgeindirect,blacksquare2.gif,pic18.bmp,Mask.bmp,030217,13:03:47,5.0.6.0,14,blackindirect,4,46,717,plus2,0,b03.bmp,Judgeindirect,blacksquare2.gif,pic6.bmp,Mask.bmp,030217,13:03:47,5.0.6.0,14,blackindirect,4,47,2122,plus1,0,b05.bmp,Judgeindirect,blacksquare2.gif,pic73.bmp,Mask.bmp,030217,13:03:47,5.0.6.0,14,whiteindirect,4,48,1831,minus1,0,w04.bmp,Judgeindirect,blacksquare2.gif,pic69.bmp,Mask.bmp,030217,13:03:47,5.0.6.0,14,whiteindirect,4,49,591,minus1,0,w05.bmp,Judgeindirect,blacksquare2.gif,pic65.bmp,Mask.bmp,030217,13:03:47,5.0.6.0,14,neutral,4,50,953,minus2,0,GREY.bmp,Judgeindirect,blacksquare2.gif,pic56.bmp,Mask.bmp,030217,13:03:47,5.0.6.0,14,blackindirect,4,51,1276,plus1,0,b12.bmp,Judgeindirect,blacksquare2.gif,pic13.bmp,Mask.bmp,030217,13:03:47,5.0.6.0,14,whiteindirect,4,52,1331,plus2,0,w02.bmp,Judgeindirect,blacksquare2.gif,pic3.bmp,Mask.bmp,030217,13:03:47,5.0.6.0,14,blackindirect,4,53,6303,minus1,0,b09.bmp,Judgeindirect,blacksquare2.gif,pic62.bmp,Mask.bmp,030217,13:03:47,5.0.6.0,14,neutral,4,54,902,plus1,0,GREY.bmp,Judgeindirect,blacksquare2.gif,pic44.bmp,Mask.bmp,030217,13:03:47,5.0.6.0,14,neutral,4,55,955,plus2,0,GREY.bmp,Judgeindirect,blacksquare2.gif,pic36.bmp,Mask.bmp,030217,13:03:47,5.0.6.0,14,whiteindirect,4,56,2142,minus1,0,b11.jpg,Judgeindirect,blacksquare2.gif,pic1.bmp,Mask.bmp,030217,13:03:47,5.0.6.0,14,whiteindirect,4,57,1546,minus2,0,w06.bmp,Judgeindirect,blacksquare2.gif,pic54.bmp,Mask.bmp,030217,13:03:47,5.0.6.0,14,neutral,4,58,1438,plus1,0,GREY.bmp,Judgeindirect,blacksquare2.gif,pic75.bmp,Mask.bmp,030217,13:03:47,5.0.6.0,14,whiteindirect,4,59,1446,plus1,0,w08.bmp,Judgeindirect,blacksquare2.gif,pic16.bmp,Mask.bmp,030217,13:03:47,5.0.6.0,14,neutral,4,60,710,plus1,0,GREY.bmp,Judgeindirect,blacksquare2.gif,pic31.bmp,Mask.bmp,030217,13:03:47,5.0.6.0,14,whiteindirect,4,61,963,minus1,0,w09.bmp,Judgeindirect,blacksquare2.gif,pic58.bmp,Mask.bmp,030217,13:03:47,5.0.6.0,14,whiteindirect,4,62,518,minus1,0,w07.bmp,Judgeindirect,blacksquare2.gif,pic20.bmp,Mask.bmp,030217,13:03:47,5.0.6.0,14,blackindirect,4,63,1171,plus2,0,b10.bmp,Judgeindirect,blacksquare2.gif,pic2.bmp,Mask.bmp,030217,13:03:47,5.0.6.0,14,blackindirect,4,64,2061,plus1,0,b02.bmp,Judgeindirect,blacksquare2.gif,pic64.bmp,Mask.bmp,030217,13:03:47,5.0.6.0,14,blackindirect,4,65,2357,minus1,0,b11.bmp,Judgeindirect,blacksquare2.gif,pic25.bmp,Mask.bmp,030217,13:03:47,5.0.6.0,14,blackindirect,4,66,1384,minus2,0,b04.bmp,Judgeindirect,blacksquare2.gif,pic30.bmp,Mask.bmp,030217,13:03:47,5.0.6.0,14,whiteindirect,4,67,1746,minus1,0,w01.bmp,Judgeindirect,blacksquare2.gif,pic71.bmp,Mask.bmp,030217,13:03:47,5.0.6.0,14,blackindirect,4,68,518,minus1,0,b08.bmp,Judgeindirect,blacksquare2.gif,pic12.bmp,Mask.bmp,030217,13:03:47,5.0.6.0,14,neutral,4,69,1306,plus2,0,GREY.bmp,Judgeindirect,blacksquare2.gif,pic74.bmp,Mask.bmp,030217,13:03:47,5.0.6.0,14,neutral,4,70,1376,plus1,0,GREY.bmp,Judgeindirect,blacksquare2.gif,pic40.bmp,Mask.bmp,030217,13:03:47,5.0.6.0,14,neutral,4,71,786,plus2,0,GREY.bmp,Judgeindirect,blacksquare2.gif,pic27.bmp,Mask.bmp,030217,13:03:47,5.0.6.0,14,neutral,4,72,1188,plus1,0,GREY.bmp,Judgeindirect,blacksquare2.gif,pic67.bmp,Mask.bmp,030217,13:03:47,5.0.6.0,14,blackdirect,6,1,4664,minus1,0,b07.bmp,Judgedirect,blacksquare2.gif,pic111.bmp,Mask.bmp,030217,13:03:47,5.0.6.0,14,whitedirect,6,2,1536,minus1,0,w01.bmp,Judgedirect,blacksquare2.gif,pic116.bmp,Mask.bmp,030217,13:03:47,5.0.6.0,14,blackdirect,6,3,1380,plus1,0,b06.bmp,Judgedirect,blacksquare2.gif,pic80.bmp,Mask.bmp,030217,13:03:47,5.0.6.0,14,whitedirect,6,4,2542,plus1,0,w04.bmp,Judgedirect,blacksquare2.gif,pic101.bmp,Mask.bmp,030217,13:03:47,5.0.6.0,14,blackdirect,6,5,1187,plus2,0,b08.bmp,Judgedirect,blacksquare2.gif,pic117.bmp,Mask.bmp,030217,13:03:47,5.0.6.0,14,whitedirect,6,6,2749,plus1,0,w06.bmp,Judgedirect,blacksquare2.gif,pic110.bmp,Mask.bmp,030217,13:03:47,5.0.6.0,14,blackdirect,6,7,752,plus1,0,b12.bmp,Judgedirect,blacksquare2.gif,pic102.bmp,Mask.bmp,030217,13:03:47,5.0.6.0,14,whitedirect,6,8,2347,minus1,0,w09.bmp,Judgedirect,blacksquare2.gif,pic113.bmp,Mask.bmp,030217,13:03:47,5.0.6.0,14,blackdirect,6,9,1240,minus1,0,b10.bmp,Judgedirect,blacksquare2.gif,pic105.bmp,Mask.bmp,030217,13:03:47,5.0.6.0,14,whitedirect,6,10,1311,plus1,0,w07.bmp,Judgedirect,blacksquare2.gif,pic107.bmp,Mask.bmp,030217,13:03:47,5.0.6.0,14,blackdirect,6,11,2325,plus1,0,b11.bmp,Judgedirect,blacksquare2.gif,pic108.bmp,Mask.bmp,030217,13:03:47,5.0.6.0,14,whitedirect,6,12,969,plus2,0,w02.bmp,Judgedirect,blacksquare2.gif,pic100.bmp,Mask.bmp,030217,13:03:47,5.0.6.0,14,blackdirect,6,13,3308,minus1,0,b05.bmp,Judgedirect,blacksquare2.gif,pic79.bmp,Mask.bmp,030217,13:03:47,5.0.6.0,14,whitedirect,6,14,1738,minus1,0,b11.jpg,Judgedirect,blacksquare2.gif,pic109.bmp,Mask.bmp,030217,13:03:47,5.0.6.0,14,blackdirect,6,15,2174,minus1,0,b01.bmp,Judgedirect,blacksquare2.gif,pic115.bmp,Mask.bmp,030217,13:03:47,5.0.6.0,14,whitedirect,6,16,1673,plus1,0,w03.bmp,Judgedirect,blacksquare2.gif,pic106.bmp,Mask.bmp,030217,13:03:47,5.0.6.0,14,blackdirect,6,17,599,plus1,0,b04.bmp,Judgedirect,blacksquare2.gif,pic114.bmp,Mask.bmp,030217,13:03:47,5.0.6.0,14,whitedirect,6,18,1032,plus1,0,b12.jpg,Judgedirect,blacksquare2.gif,pic112.bmp,Mask.bmp,030217,13:03:47,5.0.6.0,14,blackdirect,6,19,2280,plus1,0,b02.bmp,Judgedirect,blacksquare2.gif,pic103.bmp,Mask.bmp,030217,13:03:47,5.0.6.0,14,whitedirect,6,20,3583,plus2,0,w08.bmp,Judgedirect,blacksquare2.gif,pic82.bmp,Mask.bmp,030217,13:03:47,5.0.6.0,14,blackdirect,6,21,954,plus1,0,b09.bmp,Judgedirect,blacksquare2.gif,pic81.bmp,Mask.bmp,030217,13:03:47,5.0.6.0,14,whitedirect,6,22,1525,plus2,0,w05.bmp,Judgedirect,blacksquare2.gif,pic118.bmp,Mask.bmp,030217,13:03:47,5.0.6.0,14,blackdirect,6,23,3121,plus1,0,b03.bmp,Judgedirect,blacksquare2.gif,pic78.bmp,Mask.bmp,030217,13:03:47,5.0.6.0,14,whitedirect,6,24,903,minus1,0,b10.jpg,Judgedirect,blacksquare2.gif,pic104.bmp,Mask.bmp,030217,13:03:47,5.0.6.0,14,gender,7,1,8239,2,1,0,demo,0,0,0,030217,13:03:47,5.0.6.0,14,age,7,1,8239,20,1,0,demo,0,0,0,030217,13:03:47,5.0.6.0,14,ethnicity,7,1,8239,Asian-American,1,0,demo,0,0,0,022117,20:21:06,5.0.6.0,17,practice,1,1,546,57,1,sample.bmp,orient1,blacksquare2.gif,pic76.bmp,Mask.bmp,022117,20:21:06,5.0.6.0,17,blackindirect,4,1,9024,plus2,0,b02.bmp,Judgeindirect,blacksquare2.gif,pic60.bmp,Mask.bmp,022117,20:21:06,5.0.6.0,17,whiteindirect,4,2,219,plus2,0,b10.jpg,Judgeindirect,blacksquare2.gif,pic11.bmp,Mask.bmp,022117,20:21:06,5.0.6.0,17,neutral,4,3,99,plus2,0,GREY.bmp,Judgeindirect,blacksquare2.gif,pic41.bmp,Mask.bmp,022117,20:21:06,5.0.6.0,17,blackindirect,4,4,0,plus2,0,b06.bmp,Judgeindirect,blacksquare2.gif,pic56.bmp,Mask.bmp,022117,20:21:06,5.0.6.0,17,blackindirect,4,5,105,plus2,0,b04.bmp,Judgeindirect,blacksquare2.gif,pic30.bmp,Mask.bmp,022117,20:21:06,5.0.6.0,17,blackindirect,4,6,157,plus2,0,b09.bmp,Judgeindirect,blacksquare2.gif,pic40.bmp,Mask.bmp,022117,20:21:06,5.0.6.0,17,whiteindirect,4,7,96,plus2,0,w06.bmp,Judgeindirect,blacksquare2.gif,pic48.bmp,Mask.bmp,022117,20:21:06,5.0.6.0,17,blackindirect,4,8,126,plus2,0,b11.bmp,Judgeindirect,blacksquare2.gif,pic17.bmp,Mask.bmp,022117,20:21:06,5.0.6.0,17,neutral,4,9,146,plus2,0,GREY.bmp,Judgeindirect,blacksquare2.gif,pic69.bmp,Mask.bmp,022117,20:21:06,5.0.6.0,17,neutral,4,10,149,plus2,0,GREY.bmp,Judgeindirect,blacksquare2.gif,pic45.bmp,Mask.bmp,022117,20:21:06,5.0.6.0,17,blackindirect,4,11,184,plus2,0,b03.bmp,Judgeindirect,blacksquare2.gif,pic49.bmp,Mask.bmp,022117,20:21:06,5.0.6.0,17,whiteindirect,4,12,18,plus2,0,w09.bmp,Judgeindirect,blacksquare2.gif,pic8.bmp,Mask.bmp,022117,20:21:06,5.0.6.0,17,whiteindirect,4,13,162,plus2,0,w07.bmp,Judgeindirect,blacksquare2.gif,pic3.bmp,Mask.bmp,022117,20:21:06,5.0.6.0,17,blackindirect,4,14,21,plus2,0,b01.bmp,Judgeindirect,blacksquare2.gif,pic65.bmp,Mask.bmp,022117,20:21:06,5.0.6.0,17,neutral,4,15,197,plus2,0,GREY.bmp,Judgeindirect,blacksquare2.gif,pic10.bmp,Mask.bmp,022117,20:21:06,5.0.6.0,17,neutral,4,16,182,plus2,0,GREY.bmp,Judgeindirect,blacksquare2.gif,pic16.bmp,Mask.bmp,022117,20:21:06,5.0.6.0,17,whiteindirect,4,17,16,plus2,0,w05.bmp,Judgeindirect,blacksquare2.gif,pic26.bmp,Mask.bmp,022117,20:21:06,5.0.6.0,17,blackindirect,4,18,184,plus2,0,b12.bmp,Judgeindirect,blacksquare2.gif,pic34.bmp,Mask.bmp,022117,20:21:06,5.0.6.0,17,whiteindirect,4,19,34,plus2,0,b12.jpg,Judgeindirect,blacksquare2.gif,pic44.bmp,Mask.bmp,022117,20:21:06,5.0.6.0,17,neutral,4,20,25,plus2,0,GREY.bmp,Judgeindirect,blacksquare2.gif,pic22.bmp,Mask.bmp,022117,20:21:06,5.0.6.0,17,neutral,4,21,137,plus2,0,GREY.bmp,Judgeindirect,blacksquare2.gif,pic53.bmp,Mask.bmp,022117,20:21:06,5.0.6.0,17,whiteindirect,4,22,45,plus2,0,w04.bmp,Judgeindirect,blacksquare2.gif,pic24.bmp,Mask.bmp,022117,20:21:06,5.0.6.0,17,neutral,4,23,52,plus2,0,GREY.bmp,Judgeindirect,blacksquare2.gif,pic9.bmp,Mask.bmp,022117,20:21:06,5.0.6.0,17,blackindirect,4,24,11,plus2,0,b05.bmp,Judgeindirect,blacksquare2.gif,pic33.bmp,Mask.bmp,022117,20:21:06,5.0.6.0,17,whiteindirect,4,25,164,plus2,0,w08.bmp,Judgeindirect,blacksquare2.gif,pic54.bmp,Mask.bmp,022117,20:21:06,5.0.6.0,17,blackindirect,4,26,279,plus2,0,b07.bmp,Judgeindirect,blacksquare2.gif,pic1.bmp,Mask.bmp,022117,20:21:06,5.0.6.0,17,neutral,4,27,13,plus2,0,GREY.bmp,Judgeindirect,blacksquare2.gif,pic75.bmp,Mask.bmp,022117,20:21:06,5.0.6.0,17,neutral,4,28,6,plus2,0,GREY.bmp,Judgeindirect,blacksquare2.gif,pic7.bmp,Mask.bmp,022117,20:21:06,5.0.6.0,17,whiteindirect,4,29,238,plus2,0,w01.bmp,Judgeindirect,blacksquare2.gif,pic67.bmp,Mask.bmp,022117,20:21:06,5.0.6.0,17,blackindirect,4,30,286,plus2,0,b08.bmp,Judgeindirect,blacksquare2.gif,pic72.bmp,Mask.bmp,022117,20:21:06,5.0.6.0,17,neutral,4,31,108,plus2,0,GREY.bmp,Judgeindirect,blacksquare2.gif,pic74.bmp,Mask.bmp,022117,20:21:06,5.0.6.0,17,neutral,4,32,24,plus2,0,GREY.bmp,Judgeindirect,blacksquare2.gif,pic73.bmp,Mask.bmp,022117,20:21:06,5.0.6.0,17,blackindirect,4,33,169,plus2,0,b10.bmp,Judgeindirect,blacksquare2.gif,pic20.bmp,Mask.bmp,022117,20:21:06,5.0.6.0,17,neutral,4,34,155,plus2,0,GREY.bmp,Judgeindirect,blacksquare2.gif,pic12.bmp,Mask.bmp,022117,20:21:06,5.0.6.0,17,blackindirect,4,35,190,plus2,0,b10.bmp,Judgeindirect,blacksquare2.gif,pic61.bmp,Mask.bmp,022117,20:21:06,5.0.6.0,17,whiteindirect,4,36,183,plus2,0,b11.jpg,Judgeindirect,blacksquare2.gif,pic64.bmp,Mask.bmp,022117,20:21:06,5.0.6.0,17,neutral,4,37,17,plus2,0,GREY.bmp,Judgeindirect,blacksquare2.gif,pic28.bmp,Mask.bmp,022117,20:21:06,5.0.6.0,17,blackindirect,4,38,57,plus2,0,b02.bmp,Judgeindirect,blacksquare2.gif,pic58.bmp,Mask.bmp,022117,20:21:06,5.0.6.0,17,blackindirect,4,39,184,plus2,0,b08.bmp,Judgeindirect,blacksquare2.gif,pic31.bmp,Mask.bmp,022117,20:21:06,5.0.6.0,17,neutral,4,40,65,plus2,0,GREY.bmp,Judgeindirect,blacksquare2.gif,pic37.bmp,Mask.bmp,022117,20:21:06,5.0.6.0,17,whiteindirect,4,41,240,plus2,0,w03.bmp,Judgeindirect,blacksquare2.gif,pic50.bmp,Mask.bmp,022117,20:21:06,5.0.6.0,17,whiteindirect,4,42,63,plus2,0,w02.bmp,Judgeindirect,blacksquare2.gif,pic71.bmp,Mask.bmp,022117,20:21:06,5.0.6.0,17,whiteindirect,4,43,134,plus2,0,w01.bmp,Judgeindirect,blacksquare2.gif,pic66.bmp,Mask.bmp,022117,20:21:06,5.0.6.0,17,blackindirect,4,44,122,plus2,0,b11.bmp,Judgeindirect,blacksquare2.gif,pic51.bmp,Mask.bmp,022117,20:21:06,5.0.6.0,17,whiteindirect,4,45,174,plus2,0,w07.bmp,Judgeindirect,blacksquare2.gif,pic5.bmp,Mask.bmp,022117,20:21:06,5.0.6.0,17,blackindirect,4,46,184,plus2,0,b03.bmp,Judgeindirect,blacksquare2.gif,pic6.bmp,Mask.bmp,022117,20:21:06,5.0.6.0,17,whiteindirect,4,47,10,plus2,0,w06.bmp,Judgeindirect,blacksquare2.gif,pic38.bmp,Mask.bmp,022117,20:21:06,5.0.6.0,17,blackindirect,4,48,2,plus2,0,b05.bmp,Judgeindirect,blacksquare2.gif,pic18.bmp,Mask.bmp,022117,20:21:06,5.0.6.0,17,whiteindirect,4,49,747,plus2,0,w03.bmp,Judgeindirect,blacksquare2.gif,pic63.bmp,Mask.bmp,022117,20:21:06,5.0.6.0,17,neutral,4,50,191,plus2,0,GREY.bmp,Judgeindirect,blacksquare2.gif,pic39.bmp,Mask.bmp,022117,20:21:06,5.0.6.0,17,blackindirect,4,51,208,plus2,0,b01.bmp,Judgeindirect,blacksquare2.gif,pic4.bmp,Mask.bmp,022117,20:21:06,5.0.6.0,17,whiteindirect,4,52,137,plus2,0,b11.jpg,Judgeindirect,blacksquare2.gif,pic2.bmp,Mask.bmp,022117,20:21:06,5.0.6.0,17,whiteindirect,4,53,45,plus2,0,b12.jpg,Judgeindirect,blacksquare2.gif,pic23.bmp,Mask.bmp,022117,20:21:06,5.0.6.0,17,blackindirect,4,54,100,plus2,0,b04.bmp,Judgeindirect,blacksquare2.gif,pic42.bmp,Mask.bmp,022117,20:21:06,5.0.6.0,17,neutral,4,55,137,plus2,0,GREY.bmp,Judgeindirect,blacksquare2.gif,pic19.bmp,Mask.bmp,022117,20:21:06,5.0.6.0,17,whiteindirect,4,56,141,plus2,0,w04.bmp,Judgeindirect,blacksquare2.gif,pic62.bmp,Mask.bmp,022117,20:21:06,5.0.6.0,17,blackindirect,4,57,128,plus2,0,b06.bmp,Judgeindirect,blacksquare2.gif,pic13.bmp,Mask.bmp,022117,20:21:06,5.0.6.0,17,neutral,4,58,132,plus2,0,GREY.bmp,Judgeindirect,blacksquare2.gif,pic55.bmp,Mask.bmp,022117,20:21:06,5.0.6.0,17,neutral,4,59,232,plus2,0,GREY.bmp,Judgeindirect,blacksquare2.gif,pic70.bmp,Mask.bmp,022117,20:21:06,5.0.6.0,17,neutral,4,60,328,plus2,0,GREY.bmp,Judgeindirect,blacksquare2.gif,pic68.bmp,Mask.bmp,022117,20:21:06,5.0.6.0,17,whiteindirect,4,61,228,plus2,0,w09.bmp,Judgeindirect,blacksquare2.gif,pic46.bmp,Mask.bmp,022117,20:21:06,5.0.6.0,17,whiteindirect,4,62,284,plus2,0,w05.bmp,Judgeindirect,blacksquare2.gif,pic21.bmp,Mask.bmp,022117,20:21:06,5.0.6.0,17,neutral,4,63,266,plus2,0,GREY.bmp,Judgeindirect,blacksquare2.gif,pic27.bmp,Mask.bmp,022117,20:21:06,5.0.6.0,17,blackindirect,4,64,160,plus2,0,b07.bmp,Judgeindirect,blacksquare2.gif,pic36.bmp,Mask.bmp,022117,20:21:06,5.0.6.0,17,whiteindirect,4,65,107,plus2,0,b10.jpg,Judgeindirect,blacksquare2.gif,pic29.bmp,Mask.bmp,022117,20:21:06,5.0.6.0,17,whiteindirect,4,66,160,plus2,0,w02.bmp,Judgeindirect,blacksquare2.gif,pic52.bmp,Mask.bmp,022117,20:21:06,5.0.6.0,17,whiteindirect,4,67,155,plus2,0,w08.bmp,Judgeindirect,blacksquare2.gif,pic59.bmp,Mask.bmp,022117,20:21:06,5.0.6.0,17,neutral,4,68,181,plus2,0,GREY.bmp,Judgeindirect,blacksquare2.gif,pic43.bmp,Mask.bmp,022117,20:21:06,5.0.6.0,17,blackindirect,4,69,304,plus2,0,b12.bmp,Judgeindirect,blacksquare2.gif,pic47.bmp,Mask.bmp,022117,20:21:06,5.0.6.0,17,blackindirect,4,70,197,plus2,0,b09.bmp,Judgeindirect,blacksquare2.gif,pic57.bmp,Mask.bmp,022117,20:21:06,5.0.6.0,17,neutral,4,71,70,plus2,0,GREY.bmp,Judgeindirect,blacksquare2.gif,pic32.bmp,Mask.bmp,022117,20:21:06,5.0.6.0,17,neutral,4,72,340,plus2,0,GREY.bmp,Judgeindirect,blacksquare2.gif,pic25.bmp,Mask.bmp,030217,13:03:56,5.0.6.0,18,practice,1,1,12058,57,1,sample.bmp,orient1,blacksquare2.gif,pic76.bmp,Mask.bmp,030217,13:03:56,5.0.6.0,18,neutral,4,1,6662,plus1,0,GREY.bmp,Judgeindirect,blacksquare2.gif,pic53.bmp,Mask.bmp,030217,13:03:56,5.0.6.0,18,neutral,4,2,6599,plus2,0,GREY.bmp,Judgeindirect,blacksquare2.gif,pic47.bmp,Mask.bmp,030217,13:03:56,5.0.6.0,18,blackindirect,4,3,1234,plus2,0,b02.bmp,Judgeindirect,blacksquare2.gif,pic26.bmp,Mask.bmp,030217,13:03:56,5.0.6.0,18,neutral,4,4,6265,minus1,0,GREY.bmp,Judgeindirect,blacksquare2.gif,pic11.bmp,Mask.bmp,030217,13:03:56,5.0.6.0,18,whiteindirect,4,5,1530,plus1,0,w04.bmp,Judgeindirect,blacksquare2.gif,pic40.bmp,Mask.bmp,030217,13:03:56,5.0.6.0,18,neutral,4,6,2894,minus1,0,GREY.bmp,Judgeindirect,blacksquare2.gif,pic13.bmp,Mask.bmp,030217,13:03:56,5.0.6.0,18,blackindirect,4,7,2805,plus2,0,b04.bmp,Judgeindirect,blacksquare2.gif,pic23.bmp,Mask.bmp,030217,13:03:56,5.0.6.0,18,neutral,4,8,1542,minus1,0,GREY.bmp,Judgeindirect,blacksquare2.gif,pic34.bmp,Mask.bmp,030217,13:03:56,5.0.6.0,18,whiteindirect,4,9,1306,plus2,0,w08.bmp,Judgeindirect,blacksquare2.gif,pic51.bmp,Mask.bmp,030217,13:03:56,5.0.6.0,18,whiteindirect,4,10,1744,plus2,0,b12.jpg,Judgeindirect,blacksquare2.gif,pic14.bmp,Mask.bmp,030217,13:03:56,5.0.6.0,18,whiteindirect,4,11,3996,plus2,0,w07.bmp,Judgeindirect,blacksquare2.gif,pic56.bmp,Mask.bmp,030217,13:03:56,5.0.6.0,18,whiteindirect,4,12,2206,plus2,0,b10.jpg,Judgeindirect,blacksquare2.gif,pic63.bmp,Mask.bmp,030217,13:03:56,5.0.6.0,18,neutral,4,13,1816,minus2,0,GREY.bmp,Judgeindirect,blacksquare2.gif,pic17.bmp,Mask.bmp,030217,13:03:56,5.0.6.0,18,blackindirect,4,14,1113,plus2,0,b06.bmp,Judgeindirect,blacksquare2.gif,pic15.bmp,Mask.bmp,030217,13:03:56,5.0.6.0,18,blackindirect,4,15,958,plus2,0,b11.bmp,Judgeindirect,blacksquare2.gif,pic52.bmp,Mask.bmp,030217,13:03:56,5.0.6.0,18,whiteindirect,4,16,769,plus2,0,b11.jpg,Judgeindirect,blacksquare2.gif,pic58.bmp,Mask.bmp,030217,13:03:56,5.0.6.0,18,whiteindirect,4,17,459,plus2,0,w02.bmp,Judgeindirect,blacksquare2.gif,pic36.bmp,Mask.bmp,030217,13:03:56,5.0.6.0,18,neutral,4,18,1306,minus2,0,GREY.bmp,Judgeindirect,blacksquare2.gif,pic43.bmp,Mask.bmp,030217,13:03:56,5.0.6.0,18,neutral,4,19,2087,plus2,0,GREY.bmp,Judgeindirect,blacksquare2.gif,pic18.bmp,Mask.bmp,030217,13:03:56,5.0.6.0,18,neutral,4,20,1942,minus2,0,GREY.bmp,Judgeindirect,blacksquare2.gif,pic44.bmp,Mask.bmp,030217,13:03:56,5.0.6.0,18,neutral,4,21,402,minus2,0,GREY.bmp,Judgeindirect,blacksquare2.gif,pic62.bmp,Mask.bmp,030217,13:03:56,5.0.6.0,18,blackindirect,4,22,1491,plus2,0,b01.bmp,Judgeindirect,blacksquare2.gif,pic1.bmp,Mask.bmp,030217,13:03:56,5.0.6.0,18,neutral,4,23,1720,minus2,0,GREY.bmp,Judgeindirect,blacksquare2.gif,pic67.bmp,Mask.bmp,030217,13:03:56,5.0.6.0,18,whiteindirect,4,24,925,plus2,0,w03.bmp,Judgeindirect,blacksquare2.gif,pic48.bmp,Mask.bmp,030217,13:03:56,5.0.6.0,18,neutral,4,25,1266,minus2,0,GREY.bmp,Judgeindirect,blacksquare2.gif,pic19.bmp,Mask.bmp,030217,13:03:56,5.0.6.0,18,blackindirect,4,26,1032,plus2,0,b09.bmp,Judgeindirect,blacksquare2.gif,pic49.bmp,Mask.bmp,030217,13:03:56,5.0.6.0,18,whiteindirect,4,27,2192,plus2,0,w01.bmp,Judgeindirect,blacksquare2.gif,pic59.bmp,Mask.bmp,030217,13:03:56,5.0.6.0,18,blackindirect,4,28,306,plus2,0,b03.bmp,Judgeindirect,blacksquare2.gif,pic4.bmp,Mask.bmp,030217,13:03:56,5.0.6.0,18,blackindirect,4,29,319,plus2,0,b10.bmp,Judgeindirect,blacksquare2.gif,pic38.bmp,Mask.bmp,030217,13:03:56,5.0.6.0,18,whiteindirect,4,30,1171,plus2,0,w09.bmp,Judgeindirect,blacksquare2.gif,pic27.bmp,Mask.bmp,030217,13:03:56,5.0.6.0,18,blackindirect,4,31,438,plus2,0,b12.bmp,Judgeindirect,blacksquare2.gif,pic21.bmp,Mask.bmp,030217,13:03:56,5.0.6.0,18,blackindirect,4,32,797,plus2,0,b08.bmp,Judgeindirect,blacksquare2.gif,pic8.bmp,Mask.bmp,030217,13:03:56,5.0.6.0,18,blackindirect,4,33,1319,plus2,0,b07.bmp,Judgeindirect,blacksquare2.gif,pic10.bmp,Mask.bmp,030217,13:03:56,5.0.6.0,18,whiteindirect,4,34,2076,plus2,0,w05.bmp,Judgeindirect,blacksquare2.gif,pic37.bmp,Mask.bmp,030217,13:03:56,5.0.6.0,18,whiteindirect,4,35,570,plus2,0,w06.bmp,Judgeindirect,blacksquare2.gif,pic70.bmp,Mask.bmp,030217,13:03:56,5.0.6.0,18,whiteindirect,4,36,661,plus2,0,w04.bmp,Judgeindirect,blacksquare2.gif,pic57.bmp,Mask.bmp,030217,13:03:56,5.0.6.0,18,neutral,4,37,1940,minus2,0,GREY.bmp,Judgeindirect,blacksquare2.gif,pic50.bmp,Mask.bmp,030217,13:03:56,5.0.6.0,18,blackindirect,4,38,1216,plus2,0,b05.bmp,Judgeindirect,blacksquare2.gif,pic46.bmp,Mask.bmp,030217,13:03:56,5.0.6.0,18,whiteindirect,4,39,672,plus2,0,w05.bmp,Judgeindirect,blacksquare2.gif,pic39.bmp,Mask.bmp,030217,13:03:56,5.0.6.0,18,neutral,4,40,1575,minus2,0,GREY.bmp,Judgeindirect,blacksquare2.gif,pic68.bmp,Mask.bmp,030217,13:03:56,5.0.6.0,18,neutral,4,41,1545,minus2,0,GREY.bmp,Judgeindirect,blacksquare2.gif,pic6.bmp,Mask.bmp,030217,13:03:56,5.0.6.0,18,whiteindirect,4,42,1373,plus2,0,b10.jpg,Judgeindirect,blacksquare2.gif,pic61.bmp,Mask.bmp,030217,13:03:56,5.0.6.0,18,blackindirect,4,43,368,plus2,0,b09.bmp,Judgeindirect,blacksquare2.gif,pic45.bmp,Mask.bmp,030217,13:03:56,5.0.6.0,18,whiteindirect,4,44,650,plus2,0,w09.bmp,Judgeindirect,blacksquare2.gif,pic71.bmp,Mask.bmp,030217,13:03:56,5.0.6.0,18,neutral,4,45,1233,minus2,0,GREY.bmp,Judgeindirect,blacksquare2.gif,pic9.bmp,Mask.bmp,030217,13:03:56,5.0.6.0,18,blackindirect,4,46,1185,plus2,0,b01.bmp,Judgeindirect,blacksquare2.gif,pic2.bmp,Mask.bmp,030217,13:03:56,5.0.6.0,18,blackindirect,4,47,3691,plus2,0,b11.bmp,Judgeindirect,blacksquare2.gif,pic64.bmp,Mask.bmp,030217,13:03:56,5.0.6.0,18,neutral,4,48,1130,minus2,0,GREY.bmp,Judgeindirect,blacksquare2.gif,pic29.bmp,Mask.bmp,030217,13:03:56,5.0.6.0,18,whiteindirect,4,49,950,plus2,0,w01.bmp,Judgeindirect,blacksquare2.gif,pic65.bmp,Mask.bmp,030217,13:03:56,5.0.6.0,18,blackindirect,4,50,913,plus2,0,b04.bmp,Judgeindirect,blacksquare2.gif,pic69.bmp,Mask.bmp,030217,13:03:56,5.0.6.0,18,blackindirect,4,51,2326,plus2,0,b03.bmp,Judgeindirect,blacksquare2.gif,pic25.bmp,Mask.bmp,030217,13:03:56,5.0.6.0,18,neutral,4,52,1243,minus2,0,GREY.bmp,Judgeindirect,blacksquare2.gif,pic42.bmp,Mask.bmp,030217,13:03:56,5.0.6.0,18,blackindirect,4,53,1259,plus2,0,b02.bmp,Judgeindirect,blacksquare2.gif,pic41.bmp,Mask.bmp,030217,13:03:56,5.0.6.0,18,neutral,4,54,1306,minus2,0,GREY.bmp,Judgeindirect,blacksquare2.gif,pic66.bmp,Mask.bmp,030217,13:03:56,5.0.6.0,18,neutral,4,55,1615,minus2,0,GREY.bmp,Judgeindirect,blacksquare2.gif,pic24.bmp,Mask.bmp,030217,13:03:56,5.0.6.0,18,blackindirect,4,56,896,plus2,0,b07.bmp,Judgeindirect,blacksquare2.gif,pic31.bmp,Mask.bmp,030217,13:03:56,5.0.6.0,18,blackindirect,4,57,342,plus2,0,b10.bmp,Judgeindirect,blacksquare2.gif,pic33.bmp,Mask.bmp,030217,13:03:56,5.0.6.0,18,blackindirect,4,58,993,plus2,0,b08.bmp,Judgeindirect,blacksquare2.gif,pic55.bmp,Mask.bmp,030217,13:03:56,5.0.6.0,18,neutral,4,59,971,minus2,0,GREY.bmp,Judgeindirect,blacksquare2.gif,pic60.bmp,Mask.bmp,030217,13:03:56,5.0.6.0,18,blackindirect,4,60,1414,plus2,0,b05.bmp,Judgeindirect,blacksquare2.gif,pic3.bmp,Mask.bmp,030217,13:03:56,5.0.6.0,18,whiteindirect,4,61,151,plus2,0,w02.bmp,Judgeindirect,blacksquare2.gif,pic16.bmp,Mask.bmp,030217,13:03:56,5.0.6.0,18,neutral,4,62,1026,minus2,0,GREY.bmp,Judgeindirect,blacksquare2.gif,pic28.bmp,Mask.bmp,030217,13:03:56,5.0.6.0,18,whiteindirect,4,63,890,plus2,0,b12.jpg,Judgeindirect,blacksquare2.gif,pic30.bmp,Mask.bmp,030217,13:03:56,5.0.6.0,18,whiteindirect,4,64,664,plus2,0,b11.jpg,Judgeindirect,blacksquare2.gif,pic20.bmp,Mask.bmp,030217,13:03:56,5.0.6.0,18,whiteindirect,4,65,479,plus2,0,w06.bmp,Judgeindirect,blacksquare2.gif,pic7.bmp,Mask.bmp,030217,13:03:56,5.0.6.0,18,neutral,4,66,1413,minus2,0,GREY.bmp,Judgeindirect,blacksquare2.gif,pic12.bmp,Mask.bmp,030217,13:03:56,5.0.6.0,18,blackindirect,4,67,782,plus2,0,b12.bmp,Judgeindirect,blacksquare2.gif,pic73.bmp,Mask.bmp,030217,13:03:56,5.0.6.0,18,whiteindirect,4,68,872,plus2,0,w08.bmp,Judgeindirect,blacksquare2.gif,pic75.bmp,Mask.bmp,030217,13:03:56,5.0.6.0,18,whiteindirect,4,69,335,plus2,0,w07.bmp,Judgeindirect,blacksquare2.gif,pic72.bmp,Mask.bmp,030217,13:03:56,5.0.6.0,18,neutral,4,70,1210,minus2,0,GREY.bmp,Judgeindirect,blacksquare2.gif,pic54.bmp,Mask.bmp,030217,13:03:56,5.0.6.0,18,blackindirect,4,71,1035,plus2,0,b06.bmp,Judgeindirect,blacksquare2.gif,pic32.bmp,Mask.bmp,030217,13:03:56,5.0.6.0,18,whiteindirect,4,72,379,plus2,0,w03.bmp,Judgeindirect,blacksquare2.gif,pic5.bmp,Mask.bmp,030217,13:03:56,5.0.6.0,18,blackdirect,6,1,3052,plus2,0,b01.bmp,Judgedirect,blacksquare2.gif,pic108.bmp,Mask.bmp,030217,13:03:56,5.0.6.0,18,whitedirect,6,2,388,plus2,0,w06.bmp,Judgedirect,blacksquare2.gif,pic103.bmp,Mask.bmp,030217,13:03:56,5.0.6.0,18,blackdirect,6,3,1406,plus1,0,b07.bmp,Judgedirect,blacksquare2.gif,pic115.bmp,Mask.bmp,030217,13:03:56,5.0.6.0,18,whitedirect,6,4,559,plus2,0,w01.bmp,Judgedirect,blacksquare2.gif,pic118.bmp,Mask.bmp,030217,13:03:56,5.0.6.0,18,blackdirect,6,5,970,plus2,0,b11.bmp,Judgedirect,blacksquare2.gif,pic102.bmp,Mask.bmp,030217,13:03:56,5.0.6.0,18,whitedirect,6,6,836,plus1,0,b12.jpg,Judgedirect,blacksquare2.gif,pic82.bmp,Mask.bmp,030217,13:03:56,5.0.6.0,18,blackdirect,6,7,1236,plus2,0,b03.bmp,Judgedirect,blacksquare2.gif,pic81.bmp,Mask.bmp,030217,13:03:56,5.0.6.0,18,whitedirect,6,8,284,plus2,0,w05.bmp,Judgedirect,blacksquare2.gif,pic112.bmp,Mask.bmp,030217,13:03:56,5.0.6.0,18,blackdirect,6,9,913,plus1,0,b10.bmp,Judgedirect,blacksquare2.gif,pic78.bmp,Mask.bmp,030217,13:03:56,5.0.6.0,18,whitedirect,6,10,519,plus2,0,w09.bmp,Judgedirect,blacksquare2.gif,pic101.bmp,Mask.bmp,030217,13:03:56,5.0.6.0,18,blackdirect,6,11,987,plus2,0,b12.bmp,Judgedirect,blacksquare2.gif,pic105.bmp,Mask.bmp,030217,13:03:56,5.0.6.0,18,whitedirect,6,12,301,plus2,0,w08.bmp,Judgedirect,blacksquare2.gif,pic80.bmp,Mask.bmp,030217,13:03:56,5.0.6.0,18,blackdirect,6,13,1233,plus1,0,b08.bmp,Judgedirect,blacksquare2.gif,pic104.bmp,Mask.bmp,030217,13:03:56,5.0.6.0,18,whitedirect,6,14,377,plus2,0,w02.bmp,Judgedirect,blacksquare2.gif,pic111.bmp,Mask.bmp,030217,13:03:56,5.0.6.0,18,blackdirect,6,15,644,plus2,0,b06.bmp,Judgedirect,blacksquare2.gif,pic114.bmp,Mask.bmp,030217,13:03:56,5.0.6.0,18,whitedirect,6,16,291,plus2,0,w07.bmp,Judgedirect,blacksquare2.gif,pic116.bmp,Mask.bmp,030217,13:03:56,5.0.6.0,18,blackdirect,6,17,1113,plus2,0,b05.bmp,Judgedirect,blacksquare2.gif,pic110.bmp,Mask.bmp,030217,13:03:56,5.0.6.0,18,whitedirect,6,18,1302,plus2,0,b10.jpg,Judgedirect,blacksquare2.gif,pic113.bmp,Mask.bmp,030217,13:03:56,5.0.6.0,18,blackdirect,6,19,627,plus2,0,b09.bmp,Judgedirect,blacksquare2.gif,pic100.bmp,Mask.bmp,030217,13:03:56,5.0.6.0,18,whitedirect,6,20,700,plus2,0,w04.bmp,Judgedirect,blacksquare2.gif,pic107.bmp,Mask.bmp,030217,13:03:56,5.0.6.0,18,blackdirect,6,21,657,plus2,0,b04.bmp,Judgedirect,blacksquare2.gif,pic109.bmp,Mask.bmp,030217,13:03:56,5.0.6.0,18,whitedirect,6,22,976,plus2,0,b11.jpg,Judgedirect,blacksquare2.gif,pic79.bmp,Mask.bmp,030217,13:03:56,5.0.6.0,18,blackdirect,6,23,690,plus2,0,b02.bmp,Judgedirect,blacksquare2.gif,pic106.bmp,Mask.bmp,030217,13:03:56,5.0.6.0,18,whitedirect,6,24,584,plus2,0,w03.bmp,Judgedirect,blacksquare2.gif,pic117.bmp,Mask.bmp,030217,13:03:56,5.0.6.0,18,gender,7,1,9418,2,1,0,demo,0,0,0,030217,13:03:56,5.0.6.0,18,age,7,1,9418,20,1,0,demo,0,0,0,030217,13:03:56,5.0.6.0,18,ethnicity,7,1,9418,"White, non-Hispanic or Latino",1,0,demo,0,0,0,022117,20:25:40,5.0.6.0,21,practice,1,1,666,57,1,sample.bmp,orient1,blacksquare2.gif,pic76.bmp,Mask.bmp,031417,20:30:34,5.0.6.0,22,practice,1,1,1144,57,1,sample.bmp,orient1,blacksquare2.gif,pic76.bmp,Mask.bmp,031417,20:30:34,5.0.6.0,22,blackindirect,4,1,1451,plus2,0,b08.bmp,Judgeindirect,blacksquare2.gif,pic21.bmp,Mask.bmp,031417,20:30:34,5.0.6.0,22,whiteindirect,4,2,51,plus2,0,b11.jpg,Judgeindirect,blacksquare2.gif,pic52.bmp,Mask.bmp,031417,20:30:34,5.0.6.0,22,blackindirect,4,3,105,plus2,0,b11.bmp,Judgeindirect,blacksquare2.gif,pic74.bmp,Mask.bmp,031417,20:30:34,5.0.6.0,22,whiteindirect,4,4,406,plus2,0,w02.bmp,Judgeindirect,blacksquare2.gif,pic71.bmp,Mask.bmp,031417,20:30:34,5.0.6.0,22,whiteindirect,4,5,199,plus2,0,b10.jpg,Judgeindirect,blacksquare2.gif,pic7.bmp,Mask.bmp,031417,20:30:34,5.0.6.0,22,blackindirect,4,6,80,plus2,0,b03.bmp,Judgeindirect,blacksquare2.gif,pic2.bmp,Mask.bmp,031417,20:30:34,5.0.6.0,22,blackindirect,4,7,166,plus2,0,b10.bmp,Judgeindirect,blacksquare2.gif,pic33.bmp,Mask.bmp,031417,20:30:34,5.0.6.0,22,neutral,4,8,288,plus2,0,GREY.bmp,Judgeindirect,blacksquare2.gif,pic30.bmp,Mask.bmp,031417,20:30:34,5.0.6.0,22,whiteindirect,4,9,150,plus2,0,w05.bmp,Judgeindirect,blacksquare2.gif,pic60.bmp,Mask.bmp,031417,20:30:34,5.0.6.0,22,neutral,4,10,169,plus2,0,GREY.bmp,Judgeindirect,blacksquare2.gif,pic37.bmp,Mask.bmp,031417,20:30:34,5.0.6.0,22,neutral,4,11,403,plus2,0,GREY.bmp,Judgeindirect,blacksquare2.gif,pic59.bmp,Mask.bmp,031417,20:30:34,5.0.6.0,22,whiteindirect,4,12,356,plus2,0,w03.bmp,Judgeindirect,blacksquare2.gif,pic53.bmp,Mask.bmp,031417,20:30:34,5.0.6.0,22,neutral,4,13,1015,plus2,0,GREY.bmp,Judgeindirect,blacksquare2.gif,pic62.bmp,Mask.bmp,031417,20:30:34,5.0.6.0,22,blackindirect,4,14,552,plus2,0,b01.bmp,Judgeindirect,blacksquare2.gif,pic68.bmp,Mask.bmp,031417,20:30:34,5.0.6.0,22,whiteindirect,4,15,411,plus2,0,w09.bmp,Judgeindirect,blacksquare2.gif,pic58.bmp,Mask.bmp,031417,20:30:34,5.0.6.0,22,neutral,4,16,444,plus2,0,GREY.bmp,Judgeindirect,blacksquare2.gif,pic55.bmp,Mask.bmp,031417,20:30:34,5.0.6.0,22,blackindirect,4,17,795,plus2,0,b06.bmp,Judgeindirect,blacksquare2.gif,pic25.bmp,Mask.bmp,031417,20:30:34,5.0.6.0,22,neutral,4,18,341,plus2,0,GREY.bmp,Judgeindirect,blacksquare2.gif,pic12.bmp,Mask.bmp,031417,20:30:34,5.0.6.0,22,blackindirect,4,19,689,plus2,0,b09.bmp,Judgeindirect,blacksquare2.gif,pic8.bmp,Mask.bmp,031417,20:30:34,5.0.6.0,22,whiteindirect,4,20,1286,plus2,0,w01.bmp,Judgeindirect,blacksquare2.gif,pic75.bmp,Mask.bmp,031417,20:30:34,5.0.6.0,22,blackindirect,4,21,1500,plus2,0,b07.bmp,Judgeindirect,blacksquare2.gif,pic20.bmp,Mask.bmp,031417,20:30:34,5.0.6.0,22,neutral,4,22,657,plus2,0,GREY.bmp,Judgeindirect,blacksquare2.gif,pic29.bmp,Mask.bmp,031417,20:30:34,5.0.6.0,22,neutral,4,23,193,plus2,0,GREY.bmp,Judgeindirect,blacksquare2.gif,pic32.bmp,Mask.bmp,031417,20:30:34,5.0.6.0,22,blackindirect,4,24,2370,plus2,0,b05.bmp,Judgeindirect,blacksquare2.gif,pic31.bmp,Mask.bmp,031417,20:30:34,5.0.6.0,22,neutral,4,25,989,plus2,0,GREY.bmp,Judgeindirect,blacksquare2.gif,pic72.bmp,Mask.bmp,031417,20:30:34,5.0.6.0,22,neutral,4,26,535,plus2,0,GREY.bmp,Judgeindirect,blacksquare2.gif,pic24.bmp,Mask.bmp,031417,20:30:34,5.0.6.0,22,neutral,4,27,194,plus2,0,GREY.bmp,Judgeindirect,blacksquare2.gif,pic36.bmp,Mask.bmp,031417,20:30:34,5.0.6.0,22,blackindirect,4,28,124,plus2,0,b02.bmp,Judgeindirect,blacksquare2.gif,pic26.bmp,Mask.bmp,031417,20:30:34,5.0.6.0,22,whiteindirect,4,29,40,plus2,0,w06.bmp,Judgeindirect,blacksquare2.gif,pic65.bmp,Mask.bmp,031417,20:30:34,5.0.6.0,22,whiteindirect,4,30,119,plus2,0,w04.bmp,Judgeindirect,blacksquare2.gif,pic63.bmp,Mask.bmp,031417,20:30:34,5.0.6.0,22,neutral,4,31,84,plus2,0,GREY.bmp,Judgeindirect,blacksquare2.gif,pic57.bmp,Mask.bmp,031417,20:30:34,5.0.6.0,22,whiteindirect,4,32,129,plus2,0,b12.jpg,Judgeindirect,blacksquare2.gif,pic13.bmp,Mask.bmp,031417,20:30:34,5.0.6.0,22,neutral,4,33,133,plus2,0,GREY.bmp,Judgeindirect,blacksquare2.gif,pic40.bmp,Mask.bmp,031417,20:30:34,5.0.6.0,22,blackindirect,4,34,105,plus2,0,b04.bmp,Judgeindirect,blacksquare2.gif,pic70.bmp,Mask.bmp,031417,20:30:34,5.0.6.0,22,neutral,4,35,94,plus2,0,GREY.bmp,Judgeindirect,blacksquare2.gif,pic28.bmp,Mask.bmp,031417,20:30:34,5.0.6.0,22,neutral,4,36,115,plus2,0,GREY.bmp,Judgeindirect,blacksquare2.gif,pic18.bmp,Mask.bmp,031417,20:30:34,5.0.6.0,22,neutral,4,37,56,plus2,0,GREY.bmp,Judgeindirect,blacksquare2.gif,pic9.bmp,Mask.bmp,031417,20:30:34,5.0.6.0,22,whiteindirect,4,38,151,plus2,0,w07.bmp,Judgeindirect,blacksquare2.gif,pic22.bmp,Mask.bmp,031417,20:30:34,5.0.6.0,22,neutral,4,39,106,plus2,0,GREY.bmp,Judgeindirect,blacksquare2.gif,pic54.bmp,Mask.bmp,031417,20:30:34,5.0.6.0,22,blackindirect,4,40,118,plus2,0,b12.bmp,Judgeindirect,blacksquare2.gif,pic45.bmp,Mask.bmp,031417,20:30:34,5.0.6.0,22,blackindirect,4,41,27,plus2,0,b08.bmp,Judgeindirect,blacksquare2.gif,pic3.bmp,Mask.bmp,031417,20:30:34,5.0.6.0,22,neutral,4,42,115,plus2,0,GREY.bmp,Judgeindirect,blacksquare2.gif,pic73.bmp,Mask.bmp,031417,20:30:34,5.0.6.0,22,whiteindirect,4,43,64,plus2,0,w08.bmp,Judgeindirect,blacksquare2.gif,pic39.bmp,Mask.bmp,031417,20:30:34,5.0.6.0,22,blackindirect,4,44,102,plus2,0,b07.bmp,Judgeindirect,blacksquare2.gif,pic44.bmp,Mask.bmp,031417,20:30:34,5.0.6.0,22,whiteindirect,4,45,59,plus2,0,b12.jpg,Judgeindirect,blacksquare2.gif,pic48.bmp,Mask.bmp,031417,20:30:34,5.0.6.0,22,neutral,4,46,98,plus2,0,GREY.bmp,Judgeindirect,blacksquare2.gif,pic64.bmp,Mask.bmp,031417,20:30:34,5.0.6.0,22,blackindirect,4,47,79,plus2,0,b05.bmp,Judgeindirect,blacksquare2.gif,pic51.bmp,Mask.bmp,031417,20:30:34,5.0.6.0,22,whiteindirect,4,48,54,plus2,0,w06.bmp,Judgeindirect,blacksquare2.gif,pic15.bmp,Mask.bmp,031417,20:30:34,5.0.6.0,22,blackindirect,4,49,52,plus2,0,b09.bmp,Judgeindirect,blacksquare2.gif,pic1.bmp,Mask.bmp,031417,20:30:34,5.0.6.0,22,whiteindirect,4,50,19,plus2,0,w04.bmp,Judgeindirect,blacksquare2.gif,pic50.bmp,Mask.bmp,031417,20:30:34,5.0.6.0,22,whiteindirect,4,51,67,plus2,0,w05.bmp,Judgeindirect,blacksquare2.gif,pic66.bmp,Mask.bmp,031417,20:30:34,5.0.6.0,22,whiteindirect,4,52,49,plus2,0,w02.bmp,Judgeindirect,blacksquare2.gif,pic46.bmp,Mask.bmp,031417,20:30:34,5.0.6.0,22,blackindirect,4,53,24,plus2,0,b11.bmp,Judgeindirect,blacksquare2.gif,pic67.bmp,Mask.bmp,031417,20:30:34,5.0.6.0,22,neutral,4,54,96,plus2,0,GREY.bmp,Judgeindirect,blacksquare2.gif,pic11.bmp,Mask.bmp,031417,20:30:34,5.0.6.0,22,blackindirect,4,55,14,plus2,0,b10.bmp,Judgeindirect,blacksquare2.gif,pic27.bmp,Mask.bmp,031417,20:30:34,5.0.6.0,22,whiteindirect,4,56,71,plus2,0,w01.bmp,Judgeindirect,blacksquare2.gif,pic17.bmp,Mask.bmp,031417,20:30:34,5.0.6.0,22,whiteindirect,4,57,69,plus2,0,w08.bmp,Judgeindirect,blacksquare2.gif,pic34.bmp,Mask.bmp,031417,20:30:34,5.0.6.0,22,blackindirect,4,58,51,plus2,0,b06.bmp,Judgeindirect,blacksquare2.gif,pic47.bmp,Mask.bmp,031417,20:30:34,5.0.6.0,22,neutral,4,59,50,plus2,0,GREY.bmp,Judgeindirect,blacksquare2.gif,pic56.bmp,Mask.bmp,031417,20:30:34,5.0.6.0,22,blackindirect,4,60,41,plus2,0,b01.bmp,Judgeindirect,blacksquare2.gif,pic10.bmp,Mask.bmp,031417,20:30:34,5.0.6.0,22,whiteindirect,4,61,104,plus2,0,b11.jpg,Judgeindirect,blacksquare2.gif,pic14.bmp,Mask.bmp,031417,20:30:34,5.0.6.0,22,neutral,4,62,397,plus2,0,GREY.bmp,Judgeindirect,blacksquare2.gif,pic38.bmp,Mask.bmp,031417,20:30:34,5.0.6.0,22,neutral,4,63,278,plus2,0,GREY.bmp,Judgeindirect,blacksquare2.gif,pic43.bmp,Mask.bmp,031417,20:30:34,5.0.6.0,22,blackindirect,4,64,237,plus2,0,b03.bmp,Judgeindirect,blacksquare2.gif,pic23.bmp,Mask.bmp,031417,20:30:34,5.0.6.0,22,whiteindirect,4,65,284,plus2,0,b10.jpg,Judgeindirect,blacksquare2.gif,pic49.bmp,Mask.bmp,031417,20:30:34,5.0.6.0,22,neutral,4,66,202,plus2,0,GREY.bmp,Judgeindirect,blacksquare2.gif,pic42.bmp,Mask.bmp,031417,20:30:34,5.0.6.0,22,whiteindirect,4,67,99,plus2,0,w07.bmp,Judgeindirect,blacksquare2.gif,pic41.bmp,Mask.bmp,031417,20:30:34,5.0.6.0,22,blackindirect,4,68,416,plus2,0,b02.bmp,Judgeindirect,blacksquare2.gif,pic19.bmp,Mask.bmp,031417,20:30:34,5.0.6.0,22,whiteindirect,4,69,120,plus2,0,w03.bmp,Judgeindirect,blacksquare2.gif,pic69.bmp,Mask.bmp,031417,20:30:34,5.0.6.0,22,blackindirect,4,70,219,plus2,0,b12.bmp,Judgeindirect,blacksquare2.gif,pic4.bmp,Mask.bmp,031417,20:30:34,5.0.6.0,22,blackindirect,4,71,203,plus2,0,b04.bmp,Judgeindirect,blacksquare2.gif,pic16.bmp,Mask.bmp,031417,20:30:34,5.0.6.0,22,whiteindirect,4,72,68,plus2,0,w09.bmp,Judgeindirect,blacksquare2.gif,pic61.bmp,Mask.bmp,031417,20:30:34,5.0.6.0,22,whitedirect,6,1,599,plus2,0,w06.bmp,Judgedirect,blacksquare2.gif,pic107.bmp,Mask.bmp,031417,20:30:34,5.0.6.0,22,blackdirect,6,2,208,plus2,0,b04.bmp,Judgedirect,blacksquare2.gif,pic116.bmp,Mask.bmp,031417,20:30:34,5.0.6.0,22,whitedirect,6,3,417,plus2,0,w01.bmp,Judgedirect,blacksquare2.gif,pic114.bmp,Mask.bmp,031417,20:30:34,5.0.6.0,22,blackdirect,6,4,873,plus2,0,b12.bmp,Judgedirect,blacksquare2.gif,pic106.bmp,Mask.bmp,031417,20:30:34,5.0.6.0,22,whitedirect,6,5,192,plus2,0,w08.bmp,Judgedirect,blacksquare2.gif,pic79.bmp,Mask.bmp,031417,20:30:34,5.0.6.0,22,blackdirect,6,6,929,plus2,0,b06.bmp,Judgedirect,blacksquare2.gif,pic112.bmp,Mask.bmp,031417,20:30:34,5.0.6.0,22,whitedirect,6,7,342,plus2,0,b12.jpg,Judgedirect,blacksquare2.gif,pic81.bmp,Mask.bmp,031417,20:30:34,5.0.6.0,22,blackdirect,6,8,1073,plus2,0,b08.bmp,Judgedirect,blacksquare2.gif,pic105.bmp,Mask.bmp,031417,20:30:34,5.0.6.0,22,whitedirect,6,9,496,plus2,0,w09.bmp,Judgedirect,blacksquare2.gif,pic103.bmp,Mask.bmp,031417,20:30:34,5.0.6.0,22,blackdirect,6,10,349,plus2,0,b02.bmp,Judgedirect,blacksquare2.gif,pic118.bmp,Mask.bmp,031417,20:30:34,5.0.6.0,22,whitedirect,6,11,512,plus2,0,w02.bmp,Judgedirect,blacksquare2.gif,pic102.bmp,Mask.bmp,031417,20:30:34,5.0.6.0,22,blackdirect,6,12,533,plus2,0,b11.bmp,Judgedirect,blacksquare2.gif,pic110.bmp,Mask.bmp,031417,20:30:34,5.0.6.0,22,whitedirect,6,13,625,plus2,0,b11.jpg,Judgedirect,blacksquare2.gif,pic80.bmp,Mask.bmp,031417,20:30:34,5.0.6.0,22,blackdirect,6,14,505,plus2,0,b05.bmp,Judgedirect,blacksquare2.gif,pic78.bmp,Mask.bmp,031417,20:30:34,5.0.6.0,22,whitedirect,6,15,262,plus2,0,w05.bmp,Judgedirect,blacksquare2.gif,pic101.bmp,Mask.bmp,031417,20:30:34,5.0.6.0,22,blackdirect,6,16,237,plus2,0,b09.bmp,Judgedirect,blacksquare2.gif,pic109.bmp,Mask.bmp,031417,20:30:34,5.0.6.0,22,whitedirect,6,17,157,plus2,0,w04.bmp,Judgedirect,blacksquare2.gif,pic117.bmp,Mask.bmp,031417,20:30:34,5.0.6.0,22,blackdirect,6,18,127,plus2,0,b10.bmp,Judgedirect,blacksquare2.gif,pic115.bmp,Mask.bmp,031417,20:30:34,5.0.6.0,22,whitedirect,6,19,28,plus2,0,w03.bmp,Judgedirect,blacksquare2.gif,pic108.bmp,Mask.bmp,031417,20:30:34,5.0.6.0,22,blackdirect,6,20,92,plus2,0,b03.bmp,Judgedirect,blacksquare2.gif,pic100.bmp,Mask.bmp,031417,20:30:34,5.0.6.0,22,whitedirect,6,21,409,plus2,0,w07.bmp,Judgedirect,blacksquare2.gif,pic82.bmp,Mask.bmp,031417,20:30:34,5.0.6.0,22,blackdirect,6,22,314,plus2,0,b01.bmp,Judgedirect,blacksquare2.gif,pic111.bmp,Mask.bmp,031417,20:30:34,5.0.6.0,22,whitedirect,6,23,135,plus2,0,b10.jpg,Judgedirect,blacksquare2.gif,pic104.bmp,Mask.bmp,031417,20:30:34,5.0.6.0,22,blackdirect,6,24,187,plus2,0,b07.bmp,Judgedirect,blacksquare2.gif,pic113.bmp,Mask.bmp,031417,20:30:34,5.0.6.0,22,gender,7,1,139006,1,1,0,demo,0,0,0,031417,20:30:34,5.0.6.0,22,age,7,1,139006,23,1,0,demo,0,0,0,031417,20:30:34,5.0.6.0,22,ethnicity,7,1,139006,"White, non-Hispanic or Latino",1,0,demo,0,0,0,022117,20:27:14,5.0.6.0,25,practice,1,1,854,57,1,sample.bmp,orient1,blacksquare2.gif,pic76.bmp,Mask.bmp,031617,10:27:28,5.0.6.0,26,practice,1,1,2113,57,1,sample.bmp,orient1,blacksquare2.gif,pic76.bmp,Mask.bmp,031617,10:27:28,5.0.6.0,26,neutral,4,1,3613,minus1,0,GREY.bmp,Judgeindirect,blacksquare2.gif,pic44.bmp,Mask.bmp,031617,10:27:28,5.0.6.0,26,neutral,4,2,871,minus1,0,GREY.bmp,Judgeindirect,blacksquare2.gif,pic48.bmp,Mask.bmp,031617,10:27:28,5.0.6.0,26,whiteindirect,4,3,5334,minus1,0,w01.bmp,Judgeindirect,blacksquare2.gif,pic29.bmp,Mask.bmp,031617,10:27:28,5.0.6.0,26,blackindirect,4,4,1955,plus1,0,b10.bmp,Judgeindirect,blacksquare2.gif,pic19.bmp,Mask.bmp,031617,10:27:28,5.0.6.0,26,whiteindirect,4,5,1143,plus1,0,w06.bmp,Judgeindirect,blacksquare2.gif,pic33.bmp,Mask.bmp,031617,10:27:28,5.0.6.0,26,blackindirect,4,6,810,plus1,0,b09.bmp,Judgeindirect,blacksquare2.gif,pic43.bmp,Mask.bmp,031617,10:27:28,5.0.6.0,26,blackindirect,4,7,803,plus1,0,b01.bmp,Judgeindirect,blacksquare2.gif,pic67.bmp,Mask.bmp,031617,10:27:28,5.0.6.0,26,whiteindirect,4,8,1612,plus1,0,b11.jpg,Judgeindirect,blacksquare2.gif,pic14.bmp,Mask.bmp,031617,10:27:28,5.0.6.0,26,neutral,4,9,7158,minus1,0,GREY.bmp,Judgeindirect,blacksquare2.gif,pic8.bmp,Mask.bmp,031617,10:27:28,5.0.6.0,26,neutral,4,10,3179,plus2,0,GREY.bmp,Judgeindirect,blacksquare2.gif,pic60.bmp,Mask.bmp,031617,10:27:28,5.0.6.0,26,whiteindirect,4,11,582,plus2,0,w04.bmp,Judgeindirect,blacksquare2.gif,pic27.bmp,Mask.bmp,031617,10:27:28,5.0.6.0,26,blackindirect,4,12,6232,minus1,0,b07.bmp,Judgeindirect,blacksquare2.gif,pic55.bmp,Mask.bmp,031617,10:27:28,5.0.6.0,26,neutral,4,13,970,minus1,0,GREY.bmp,Judgeindirect,blacksquare2.gif,pic30.bmp,Mask.bmp,031617,10:27:28,5.0.6.0,26,blackindirect,4,14,580,minus1,0,b08.bmp,Judgeindirect,blacksquare2.gif,pic46.bmp,Mask.bmp,031617,10:27:28,5.0.6.0,26,neutral,4,15,1911,plus1,0,GREY.bmp,Judgeindirect,blacksquare2.gif,pic12.bmp,Mask.bmp,031617,10:27:28,5.0.6.0,26,neutral,4,16,2172,plus1,0,GREY.bmp,Judgeindirect,blacksquare2.gif,pic57.bmp,Mask.bmp,031617,10:27:28,5.0.6.0,26,neutral,4,17,703,plus1,0,GREY.bmp,Judgeindirect,blacksquare2.gif,pic11.bmp,Mask.bmp,031617,10:27:28,5.0.6.0,26,whiteindirect,4,18,2052,minus1,0,w02.bmp,Judgeindirect,blacksquare2.gif,pic53.bmp,Mask.bmp,031617,10:27:28,5.0.6.0,26,whiteindirect,4,19,363,minus1,0,w05.bmp,Judgeindirect,blacksquare2.gif,pic56.bmp,Mask.bmp,031617,10:27:28,5.0.6.0,26,whiteindirect,4,20,4990,minus1,0,w07.bmp,Judgeindirect,blacksquare2.gif,pic47.bmp,Mask.bmp,031617,10:27:28,5.0.6.0,26,whiteindirect,4,21,3945,plus1,0,w08.bmp,Judgeindirect,blacksquare2.gif,pic59.bmp,Mask.bmp,031617,10:27:28,5.0.6.0,26,blackindirect,4,22,3702,minus1,0,b12.bmp,Judgeindirect,blacksquare2.gif,pic38.bmp,Mask.bmp,031617,10:27:28,5.0.6.0,26,whiteindirect,4,23,2204,plus1,0,w09.bmp,Judgeindirect,blacksquare2.gif,pic51.bmp,Mask.bmp,031617,10:27:28,5.0.6.0,26,neutral,4,24,446,plus1,0,GREY.bmp,Judgeindirect,blacksquare2.gif,pic75.bmp,Mask.bmp,031617,10:27:28,5.0.6.0,26,blackindirect,4,25,581,plus1,0,b04.bmp,Judgeindirect,blacksquare2.gif,pic68.bmp,Mask.bmp,031617,10:27:28,5.0.6.0,26,blackindirect,4,26,808,plus1,0,b06.bmp,Judgeindirect,blacksquare2.gif,pic61.bmp,Mask.bmp,031617,10:27:28,5.0.6.0,26,blackindirect,4,27,1977,minus1,0,b03.bmp,Judgeindirect,blacksquare2.gif,pic42.bmp,Mask.bmp,031617,10:27:28,5.0.6.0,26,whiteindirect,4,28,651,minus2,0,b10.jpg,Judgeindirect,blacksquare2.gif,pic70.bmp,Mask.bmp,031617,10:27:28,5.0.6.0,26,neutral,4,29,547,minus2,0,GREY.bmp,Judgeindirect,blacksquare2.gif,pic41.bmp,Mask.bmp,031617,10:27:28,5.0.6.0,26,blackindirect,4,30,454,minus2,0,b05.bmp,Judgeindirect,blacksquare2.gif,pic6.bmp,Mask.bmp,031617,10:27:28,5.0.6.0,26,whiteindirect,4,31,4829,minus2,0,w03.bmp,Judgeindirect,blacksquare2.gif,pic39.bmp,Mask.bmp,031617,10:27:28,5.0.6.0,26,neutral,4,32,1335,plus2,0,GREY.bmp,Judgeindirect,blacksquare2.gif,pic20.bmp,Mask.bmp,031617,10:27:28,5.0.6.0,26,whiteindirect,4,33,195,plus2,0,b12.jpg,Judgeindirect,blacksquare2.gif,pic3.bmp,Mask.bmp,031617,10:27:28,5.0.6.0,26,whiteindirect,4,34,204,plus2,0,w05.bmp,Judgeindirect,blacksquare2.gif,pic9.bmp,Mask.bmp,031617,10:27:28,5.0.6.0,26,blackindirect,4,35,445,plus2,0,b11.bmp,Judgeindirect,blacksquare2.gif,pic36.bmp,Mask.bmp,031617,10:27:28,5.0.6.0,26,neutral,4,36,861,plus2,0,GREY.bmp,Judgeindirect,blacksquare2.gif,pic16.bmp,Mask.bmp,031617,10:27:28,5.0.6.0,26,blackindirect,4,37,572,plus2,0,b02.bmp,Judgeindirect,blacksquare2.gif,pic2.bmp,Mask.bmp,031617,10:27:28,5.0.6.0,26,blackindirect,4,38,478,plus2,0,b02.bmp,Judgeindirect,blacksquare2.gif,pic17.bmp,Mask.bmp,031617,10:27:28,5.0.6.0,26,neutral,4,39,476,plus2,0,GREY.bmp,Judgeindirect,blacksquare2.gif,pic18.bmp,Mask.bmp,031617,10:27:28,5.0.6.0,26,whiteindirect,4,40,443,plus2,0,b12.jpg,Judgeindirect,blacksquare2.gif,pic15.bmp,Mask.bmp,031617,10:27:28,5.0.6.0,26,whiteindirect,4,41,602,plus2,0,b10.jpg,Judgeindirect,blacksquare2.gif,pic28.bmp,Mask.bmp,031617,10:27:28,5.0.6.0,26,neutral,4,42,4011,plus1,0,GREY.bmp,Judgeindirect,blacksquare2.gif,pic66.bmp,Mask.bmp,031617,10:27:28,5.0.6.0,26,neutral,4,43,925,plus1,0,GREY.bmp,Judgeindirect,blacksquare2.gif,pic58.bmp,Mask.bmp,031617,10:27:28,5.0.6.0,26,neutral,4,44,1562,minus1,0,GREY.bmp,Judgeindirect,blacksquare2.gif,pic40.bmp,Mask.bmp,031617,10:27:28,5.0.6.0,26,blackindirect,4,45,5213,minus1,0,b01.bmp,Judgeindirect,blacksquare2.gif,pic5.bmp,Mask.bmp,031617,10:27:28,5.0.6.0,26,blackindirect,4,46,2015,plus1,0,b03.bmp,Judgeindirect,blacksquare2.gif,pic4.bmp,Mask.bmp,022117,20:38:08,5.0.6.0,29,practice,1,1,12322,57,1,sample.bmp,orient1,blacksquare2.gif,pic76.bmp,Mask.bmp,031617,10:47:51,5.0.6.0,30,practice,1,1,1995,57,1,sample.bmp,orient1,blacksquare2.gif,pic76.bmp,Mask.bmp,031617,10:47:51,5.0.6.0,30,blackindirect,4,1,4068,minus1,0,b01.bmp,Judgeindirect,blacksquare2.gif,pic67.bmp,Mask.bmp,031617,10:47:51,5.0.6.0,30,neutral,4,2,1476,plus1,0,GREY.bmp,Judgeindirect,blacksquare2.gif,pic71.bmp,Mask.bmp,031617,10:47:51,5.0.6.0,30,whiteindirect,4,3,1203,plus1,0,w05.bmp,Judgeindirect,blacksquare2.gif,pic72.bmp,Mask.bmp,031617,10:47:51,5.0.6.0,30,whiteindirect,4,4,2012,minus1,0,w06.bmp,Judgeindirect,blacksquare2.gif,pic59.bmp,Mask.bmp,031617,10:47:51,5.0.6.0,30,neutral,4,5,2197,plus2,0,GREY.bmp,Judgeindirect,blacksquare2.gif,pic14.bmp,Mask.bmp,031617,10:47:51,5.0.6.0,30,whiteindirect,4,6,695,plus2,0,b11.jpg,Judgeindirect,blacksquare2.gif,pic51.bmp,Mask.bmp,031617,10:47:51,5.0.6.0,30,neutral,4,7,885,plus2,0,GREY.bmp,Judgeindirect,blacksquare2.gif,pic7.bmp,Mask.bmp,031617,10:47:51,5.0.6.0,30,neutral,4,8,723,plus2,0,GREY.bmp,Judgeindirect,blacksquare2.gif,pic73.bmp,Mask.bmp,031617,10:47:51,5.0.6.0,30,blackindirect,4,9,535,plus2,0,b10.bmp,Judgeindirect,blacksquare2.gif,pic21.bmp,Mask.bmp,031617,10:47:51,5.0.6.0,30,blackindirect,4,10,2611,minus2,0,b08.bmp,Judgeindirect,blacksquare2.gif,pic17.bmp,Mask.bmp,031617,10:47:51,5.0.6.0,30,blackindirect,4,11,780,minus2,0,b03.bmp,Judgeindirect,blacksquare2.gif,pic23.bmp,Mask.bmp,031617,10:47:51,5.0.6.0,30,blackindirect,4,12,2431,plus1,0,b02.bmp,Judgeindirect,blacksquare2.gif,pic31.bmp,Mask.bmp,031617,10:47:51,5.0.6.0,30,neutral,4,13,552,plus1,0,GREY.bmp,Judgeindirect,blacksquare2.gif,pic69.bmp,Mask.bmp,031617,10:47:51,5.0.6.0,30,neutral,4,14,2003,minus1,0,GREY.bmp,Judgeindirect,blacksquare2.gif,pic6.bmp,Mask.bmp,031617,10:47:51,5.0.6.0,30,neutral,4,15,1892,plus1,0,GREY.bmp,Judgeindirect,blacksquare2.gif,pic11.bmp,Mask.bmp,031617,10:47:51,5.0.6.0,30,blackindirect,4,16,1146,plus1,0,b12.bmp,Judgeindirect,blacksquare2.gif,pic34.bmp,Mask.bmp,031617,10:47:51,5.0.6.0,30,neutral,4,17,702,plus1,0,GREY.bmp,Judgeindirect,blacksquare2.gif,pic48.bmp,Mask.bmp,031617,10:47:51,5.0.6.0,30,blackindirect,4,18,867,plus1,0,b09.bmp,Judgeindirect,blacksquare2.gif,pic54.bmp,Mask.bmp,031617,10:47:51,5.0.6.0,30,neutral,4,19,1609,minus2,0,GREY.bmp,Judgeindirect,blacksquare2.gif,pic36.bmp,Mask.bmp,031617,10:47:51,5.0.6.0,30,neutral,4,20,1043,plus2,0,GREY.bmp,Judgeindirect,blacksquare2.gif,pic32.bmp,Mask.bmp,031617,10:47:51,5.0.6.0,30,whiteindirect,4,21,803,plus2,0,w08.bmp,Judgeindirect,blacksquare2.gif,pic66.bmp,Mask.bmp,031617,10:47:51,5.0.6.0,30,whiteindirect,4,22,1236,minus1,0,w02.bmp,Judgeindirect,blacksquare2.gif,pic43.bmp,Mask.bmp,031617,10:47:51,5.0.6.0,30,blackindirect,4,23,3011,plus1,0,b04.bmp,Judgeindirect,blacksquare2.gif,pic18.bmp,Mask.bmp,031617,10:47:51,5.0.6.0,30,whiteindirect,4,24,1053,minus1,0,w09.bmp,Judgeindirect,blacksquare2.gif,pic22.bmp,Mask.bmp,031617,10:47:51,5.0.6.0,30,whiteindirect,4,25,1292,plus2,0,b12.jpg,Judgeindirect,blacksquare2.gif,pic61.bmp,Mask.bmp,031617,10:47:51,5.0.6.0,30,blackindirect,4,26,274,plus2,0,b07.bmp,Judgeindirect,blacksquare2.gif,pic28.bmp,Mask.bmp,031617,10:47:51,5.0.6.0,30,neutral,4,27,889,plus2,0,GREY.bmp,Judgeindirect,blacksquare2.gif,pic40.bmp,Mask.bmp,031617,10:47:51,5.0.6.0,30,whiteindirect,4,28,1390,minus1,0,w04.bmp,Judgeindirect,blacksquare2.gif,pic16.bmp,Mask.bmp,031617,10:47:51,5.0.6.0,30,whiteindirect,4,29,992,minus1,0,w07.bmp,Judgeindirect,blacksquare2.gif,pic1.bmp,Mask.bmp,031617,10:47:51,5.0.6.0,30,whiteindirect,4,30,1154,minus1,0,b10.jpg,Judgeindirect,blacksquare2.gif,pic74.bmp,Mask.bmp,031617,10:47:51,5.0.6.0,30,whiteindirect,4,31,645,minus1,0,w03.bmp,Judgeindirect,blacksquare2.gif,pic60.bmp,Mask.bmp,031617,10:47:51,5.0.6.0,30,neutral,4,32,1773,plus1,0,GREY.bmp,Judgeindirect,blacksquare2.gif,pic50.bmp,Mask.bmp,031617,10:47:51,5.0.6.0,30,blackindirect,4,33,2728,plus1,0,b11.bmp,Judgeindirect,blacksquare2.gif,pic68.bmp,Mask.bmp,031617,10:47:51,5.0.6.0,30,blackindirect,4,34,1581,plus2,0,b06.bmp,Judgeindirect,blacksquare2.gif,pic19.bmp,Mask.bmp,031617,10:47:51,5.0.6.0,30,neutral,4,35,823,plus2,0,GREY.bmp,Judgeindirect,blacksquare2.gif,pic70.bmp,Mask.bmp,031617,10:47:51,5.0.6.0,30,blackindirect,4,36,1080,plus2,0,b05.bmp,Judgeindirect,blacksquare2.gif,pic62.bmp,Mask.bmp,031617,10:47:51,5.0.6.0,30,whiteindirect,4,37,1670,plus2,0,w01.bmp,Judgeindirect,blacksquare2.gif,pic63.bmp,Mask.bmp,031617,10:47:51,5.0.6.0,30,blackindirect,4,38,1341,plus2,0,b08.bmp,Judgeindirect,blacksquare2.gif,pic24.bmp,Mask.bmp,031617,10:47:51,5.0.6.0,30,whiteindirect,4,39,1593,plus1,0,w08.bmp,Judgeindirect,blacksquare2.gif,pic27.bmp,Mask.bmp,031617,10:47:51,5.0.6.0,30,neutral,4,40,3483,minus1,0,GREY.bmp,Judgeindirect,blacksquare2.gif,pic52.bmp,Mask.bmp,031617,10:47:51,5.0.6.0,30,whiteindirect,4,41,2809,minus1,0,w02.bmp,Judgeindirect,blacksquare2.gif,pic25.bmp,Mask.bmp,031617,10:47:51,5.0.6.0,30,blackindirect,4,42,643,minus1,0,b09.bmp,Judgeindirect,blacksquare2.gif,pic15.bmp,Mask.bmp,031617,10:47:51,5.0.6.0,30,whiteindirect,4,43,555,minus1,0,w09.bmp,Judgeindirect,blacksquare2.gif,pic65.bmp,Mask.bmp,031617,10:47:51,5.0.6.0,30,blackindirect,4,44,550,minus1,0,b06.bmp,Judgeindirect,blacksquare2.gif,pic47.bmp,Mask.bmp,031617,10:47:51,5.0.6.0,30,whiteindirect,4,45,1744,plus1,0,w03.bmp,Judgeindirect,blacksquare2.gif,pic41.bmp,Mask.bmp,0